anglvel_x,anglvel_y,anglvel_z,accel_x,accel_y,accel_z
14, 4, -2, 418, -766, 16808
11, 6, 5, 400, -741, 16835
6, 4, -1, 392, -732, 16846
8, 2, 0, 386, -735, 16847
13, 10, 4, 397, -748, 16824
11, 7, 2, 408, -772, 16799
9, 9, 1, 407, -780, 16767
7, 5, -3, 401, -780, 16741
6, 5, 0, 392, -766, 16746
6, 9, 0, 369, -758, 16748
9, 7, -3, 360, -747, 16769
12, 5, 2, 368, -737, 16767
10, 6, 2, 386, -718, 16771
11, 2, 3, 414, -705, 16765
12, 4, 1, 423, -695, 16772
9, 6, 4, 424, -699, 16776
14, 7, 2, 398, -715, 16779
9, 4, 5, 373, -720, 16788
7, 8, 5, 359, -735, 16786
14, 4, 1, 348, -740, 16799
8, 4, -2, 352, -743, 16801
6, 6, -2, 348, -748, 16794
9, 6, 4, 352, -750, 16779
10, 7, 2, 354, -764, 16759
9, 6, 3, 380, -762, 16765
7, 5, 3, 410, -789, 16772
8, 9, 1, 429, -786, 16807
9, 6, 3, 432, -803, 16815
12, 7, 4, 419, -803, 16831
12, 6, 1, 384, -800, 16811
10, 6, 1, 364, -792, 16807
8, 4, 0, 341, -776, 16819
6, 4, -1, 329, -769, 16816
6, 7, 0, 324, -757, 16842
11, 4, 2, 330, -747, 16852
12, 4, 0, 337, -730, 16834
8, 12, 4, 352, -711, 16814
10, 11, 0, 371, -700, 16779
7, 7, 0, 368, -692, 16757
7, 5, 1, 373, -693, 16755
10, 5, 1, 343, -701, 16768
10, -1, -6, 354, -698, 16781
8, 5, -1, 341, -704, 16788
8, 7, 2, 379, -701, 16790
14, 3, 0, 387, -700, 16785
11, 6, 0, 391, -688, 16790
10, 9, 3, 380, -677, 16777
8, 4, 4, 361, -665, 16763
7, 3, -2, 346, -670, 16745
9, 10, -2, 326, -685, 16724
9, 7, 4, 312, -703, 16737
9, 9, 2, 295, -727, 16749
11, 9, 4, 294, -727, 16795
8, 8, 3, 294, -738, 16818
7, 5, 3, 311, -733, 16845
9, 6, -4, 321, -740, 16843
9, 5, -4, 323, -733, 16858
10, 9, 1, 329, -723, 16831
13, 8, 4, 318, -706, 16824
12, 10, 2, 327, -698, 16771
7, 9, -5, 323, -679, 16750
7, 6, -4, 330, -695, 16724
6, 7, 5, 334, -690, 16726
5, 8, -2, 342, -714, 16729
9, 4, -2, 362, -712, 16738
13, 5, 3, 386, -716, 16736
8, 5, 2, 435, -702, 16735
8, 13, 6, 466, -690, 16736
9, 5, 2, 499, -684, 16737
10, 5, 1, 493, -685, 16736
6, 4, 0, 470, -688, 16747
8, 12, -1, 425, -686, 16761
9, 7, 6, 400, -687, 16775
11, 4, 0, 377, -683, 16810
10, 8, 0, 367, -684, 16828
8, 9, -2, 356, -691, 16836
9, 5, 3, 359, -697, 16822
10, 6, 0, 346, -703, 16810
8, 6, 1, 372, -708, 16785
8, 5, -1, 378, -710, 16790
7, 6, -1, 404, -701, 16782
10, 4, -1, 409, -686, 16780
11, 3, 2, 402, -655, 16774
12, 3, 5, 396, -641, 16787
7, 7, 2, 385, -632, 16788
7, 10, 0, 397, -644, 16792
11, 8, -2, 412, -648, 16780
13, 8, 2, 420, -652, 16745
13, 7, 5, 421, -653, 16727
8, 6, 3, 417, -658, 16706
4, 3, 3, 417, -678, 16714
5, 7, 3, 444, -680, 16725
7, 5, 2, 436, -683, 16749
9, 4, 1, 442, -668, 16769
10, 5, 3, 413, -647, 16774
11, 4, -5, 393, -653, 16774
15, 7, 1, 386, -648, 16764
8, 10, 3, 378, -675, 16762
5, 7, 3, 383, -699, 16753
13, 6, 2, 389, -739, 16748
11, 5, -1, 393, -747, 16735
10, 5, 0, 401, -758, 16736
8, 10, -2, 405, -726, 16736
6, 5, -6, 415, -696, 16750
10, 4, 3, 411, -671, 16755
13, 3, 3, 421, -659, 16744
6, 8, -2, 415, -667, 16751
9, 13, -2, 415, -687, 16727
13, 4, -3, 421, -694, 16732
7, 5, -2, 424, -705, 16745
11, 5, 1, 433, -699, 16756
11, 3, -2, 438, -699, 16771
7, 8, 0, 451, -688, 16781
11, 5, 5, 458, -689, 16764
12, 3, 2, 484, -697, 16764
9, 6, 1, 489, -710, 16776
12, 6, -6, 485, -725, 16788
14, 8, -2, 470, -739, 16823
12, 2, -1, 424, -746, 16831
7, 4, 7, 402, -731, 16834
8, 7, 1, 366, -735, 16827
9, 6, 2, 372, -711, 16834
9, 8, 2, 393, -704, 16808
7, 10, 1, 422, -694, 16834
10, 9, 1, 435, -678, 16804
12, 6, 0, 439, -670, 16801
10, 3, -1, 418, -680, 16783
8, 5, 5, 397, -673, 16763
11, 2, 3, 369, -689, 16742
11, 6, -1, 361, -697, 16750
14, 10, -3, 344, -708, 16757
8, 5, 2, 349, -728, 16784
6, 3, 1, 352, -735, 16796
8, 7, -2, 348, -747, 16799
7, 8, 0, 351, -737, 16770
8, 9, 7, 351, -737, 16759
10, 8, -1, 372, -749, 16746
9, 8, 3, 391, -741, 16750
9, 6, 6, 423, -752, 16769
6, 6, 1, 438, -753, 16779
4, 6, -3, 454, -760, 16783
4, 7, -6, 465, -775, 16780
10, 12, 4, 461, -788, 16769
10, 9, 4, 447, -790, 16770
11, 4, 2, 410, -785, 16754
11, 6, 7, 377, -778, 16786
6, 9, -2, 344, -753, 16789
10, 6, 0, 341, -735, 16806
6, 3, -2, 338, -711, 16814
4, 8, -4, 359, -702, 16809
9, 7, -1, 376, -704, 16814
8, 6, 1, 399, -716, 16821
11, 6, 6, 422, -728, 16805
11, 13, 4, 446, -726, 16793
8, 10, 1, 449, -738, 16767
11, 3, 1, 419, -731, 16754
16, 6, 5, 381, -733, 16759
12, 7, 9, 319, -720, 16760
8, 10, 3, 294, -713, 16777
9, 10, 2, 279, -686, 16765
10, 8, 0, 303, -675, 16763
8, 2, 0, 330, -670, 16737
14, 4, 3, 355, -670, 16757
13, 6, -5, 385, -709, 16753
11, 5, -1, 396, -734, 16787
12, 7, 5, 404, -774, 16794
10, 6, 3, 410, -797, 16795
10, 5, -2, 412, -802, 16792
10, 6, -2, 399, -796, 16811
7, 3, 1, 396, -777, 16824
8, 3, 3, 377, -769, 16853
9, 6, 2, 374, -767, 16865
10, 1, 2, 371, -775, 16858
12, 7, 1, 382, -787, 16835
16, 12, 2, 378, -788, 16810
6, 10, 7, 394, -774, 16777
6, 6, 3, 390, -748, 16780
10, 5, 4, 396, -732, 16779
7, 7, 3, 399, -717, 16798
12, 1, -2, 404, -721, 16818
8, 4, -1, 398, -736, 16805
12, 6, 3, 409, -736, 16798
10, 4, 1, 403, -746, 16759
7, 5, -2, 396, -751, 16745
8, 6, 4, 393, -749, 16738
8, 6, 2, 374, -740, 16759
9, 2, 3, 366, -722, 16795
13, 9, 8, 357, -703, 16816
8, 8, 3, 352, -695, 16833
8, 10, 2, 355, -702, 16815
13, 7, 1, 369, -721, 16801
14, 2, -1, 374, -747, 16769
11, 5, 0, 386, -767, 16770
9, 6, 3, 373, -782, 16759
2, 7, -1, 366, -771, 16760
6, 13, 1, 355, -746, 16759
10, 12, 5, 356, -722, 16753
6, 2, 0, 370, -701, 16758
5, 7, 0, 379, -690, 16772
9, 9, 0, 409, -697, 16768
7, 5, -1, 416, -704, 16752
7, 1, 1, 419, -716, 16740
9, 8, 6, 413, -725, 16710
7, 10, 5, 401, -736, 16716
10, 7, 7, 380, -740, 16722
8, 7, 4, 385, -756, 16731
7, 8, 2, 374, -767, 16754
10, 8, 0, 388, -773, 16769
9, 8, 0, 395, -768, 16790
10, 6, -1, 411, -746, 16809
15, 8, 3, 422, -727, 16827
13, 4, 4, 411, -714, 16823
10, 10, 1, 411, -729, 16834
6, 10, 2, 393, -735, 16835
7, 3, -2, 394, -745, 16844
12, 5, -1, 376, -745, 16855
9, 6, 5, 367, -735, 16870
10, 11, 5, 346, -737, 16871
14, 7, 1, 334, -751, 16862
9, 1, 1, 332, -765, 16860
12, 7, -2, 341, -787, 16841
12, 9, 4, 342, -796, 16821
10, 6, 0, 367, -795, 16798
9, 5, -1, 380, -787, 16776
6, 2, 4, 407, -755, 16762
13, 6, 2, 414, -721, 16768
8, 7, 1, 416, -695, 16767
10, 5, 0, 398, -669, 16770
11, 2, 1, 403, -660, 16751
10, 3, 0, 386, -666, 16753
11, 4, 2, 394, -661, 16739
9, 4, 2, 388, -678, 16760
7, 6, 1, 386, -689, 16771
9, 7, 3, 393, -697, 16792
7, 7, -1, 392, -704, 16800
8, 8, -1, 398, -702, 16825
11, 7, -2, 389, -686, 16828
10, 8, -1, 369, -684, 16828
8, 5, 1, 371, -671, 16812
10, 5, -2, 346, -678, 16788
12, 4, 2, 361, -682, 16765
9, 5, 4, 353, -700, 16765
9, 5, 1, 350, -699, 16761
8, 9, -1, 350, -691, 16762
11, 9, -2, 340, -702, 16765
13, 4, -1, 350, -687, 16769
10, 7, -3, 371, -707, 16768
6, 8, 0, 393, -714, 16778
8, 5, 4, 418, -713, 16767
11, 5, -2, 428, -711, 16739
9, 10, -6, 438, -705, 16733
9, 7, 1, 438, -695, 16719
12, 2, 2, 453, -695, 16730
12, 6, 2, 470, -692, 16749
11, 9, -4, 484, -700, 16754
6, 6, -3, 479, -690, 16753
6, 11, 1, 465, -692, 16751
9, 8, 1, 433, -676, 16770
10, 10, 1, 408, -674, 16776
10, 7, 0, 394, -666, 16801
7, 4, -3, 393, -671, 16785
8, 6, -1, 382, -662, 16787
9, 7, 4, 385, -670, 16767
8, 5, 1, 393, -659, 16754
12, 5, 1, 392, -674, 16755
8, 6, 0, 414, -674, 16737
7, 5, 4, 422, -687, 16754
3, 5, 1, 415, -689, 16766
4, 4, 2, 421, -703, 16775
9, 6, -1, 423, -719, 16781
7, 9, 3, 440, -745, 16782
9, 10, 2, 462, -749, 16778
13, 12, 6, 466, -747, 16798
10, 10, 3, 447, -723, 16812
9, 3, 1, 419, -699, 16818
9, 4, 0, 381, -695, 16834
9, 4, 3, 369, -693, 16814
10, 5, -2, 349, -713, 16812
8, 5, 5, 361, -722, 16776
13, 6, 4, 371, -726, 16745
11, 3, 5, 392, -729, 16718
9, 4, 1, 419, -702, 16724
8, 4, 2, 423, -696, 16743
14, 4, 3, 413, -686, 16777
10, 5, 2, 400, -696, 16799
7, 4, -1, 398, -705, 16790
7, 7, 4, 391, -712, 16770
13, 12, 8, 404, -703, 16760
9, 8, 3, 399, -684, 16750
3, 9, -1, 398, -676, 16755
9, 11, 2, 383, -682, 16770
9, 5, 1, 394, -684, 16780
8, 7, 5, 388, -697, 16788
7, 7, 6, 396, -706, 16795
8, 0, 4, 392, -711, 16791
9, 0, -1, 381, -731, 16776
9, 5, 0, 372, -747, 16767
11, 6, 2, 365, -773, 16774
8, 4, 4, 384, -773, 16782
9, 7, 2, 402, -767, 16794
9, 9, -4, 427, -743, 16799
6, 11, -1, 446, -730, 16801
10, 9, 1, 447, -718, 16800
11, 4, -1, 446, -719, 16792
4, 8, -1, 437, -721, 16791
6, 5, 1, 438, -702, 16768
7, 7, 1, 426, -686, 16756
13, 5, 5, 422, -662, 16748
10, 9, 5, 414, -640, 16745
10, 8, 6, 410, -635, 16757
12, 7, 0, 416, -637, 16787
10, 4, 1, 419, -661, 16823
12, 7, -1, 419, -691, 16843
12, 7, 0, 412, -717, 16850
9, 2, 3, 398, -735, 16834
11, 5, 3, 383, -731, 16793
11, 5, 3, 378, -730, 16762
12, 2, 0, 368, -720, 16719
9, 9, 5, 381, -727, 16698
9, 4, 2, 387, -712, 16690
12, 6, 0, 394, -700, 16700
13, 7, 0, 400, -678, 16740
10, 9, 5, 394, -663, 16769
7, 6, 1, 389, -663, 16802
9, 8, -2, 404, -672, 16812
10, 4, -1, 420, -688, 16816
9, 9, 0, 458, -692, 16801
9, 7, 4, 480, -707, 16796
10, 7, 2, 481, -696, 16781
9, 8, 3, 475, -710, 16764
7, 4, 6, 465, -716, 16756
6, 4, 4, 460, -728, 16748
9, 7, -1, 473, -734, 16745
11, 5, -1, 462, -734, 16763
7, 4, 2, 466, -730, 16772
8, 3, 2, 440, -724, 16797
11, 3, 5, 437, -718, 16808
9, 7, 4, 427, -707, 16800
8, 3, 3, 414, -703, 16793
6, 11, 8, 421, -702, 16767
10, 5, 2, 392, -714, 16764
11, 8, -2, 395, -712, 16767
9, 10, 1, 413, -712, 16766
10, 4, 2, 431, -723, 16770
14, 7, -2, 461, -721, 16751
11, 6, 1, 449, -746, 16743
8, 11, 0, 435, -753, 16725
11, 3, 0, 397, -752, 16737
10, 3, 0, 373, -744, 16747
11, 8, 4, 368, -725, 16765
5, 6, -1, 360, -704, 16787
4, 3, 3, 362, -714, 16800
9, 4, 3, 377, -705, 16806
9, 10, 5, 384, -729, 16809
12, 6, 5, 425, -727, 16793
8, 3, 4, 456, -748, 16769
11, 3, 3, 467, -735, 16748
10, 5, -1, 463, -740, 16734
11, 7, -1, 422, -739, 16750
13, 8, 3, 383, -718, 16776
10, 6, 0, 374, -720, 16821
5, 5, 2, 364, -709, 16845
10, 7, -3, 373, -706, 16863
14, 4, 1, 382, -699, 16878
15, 6, 6, 374, -692, 16873
10, 5, 2, 375, -678, 16879
6, 8, -1, 367, -656, 16886
9, 9, 3, 363, -628, 16895
9, 2, 0, 373, -611, 16897
5, 8, -3, 377, -596, 16905
7, 9, 5, 398, -608, 16875
9, 3, 1, 409, -641, 16866
9, 6, -1, 428, -670, 16835
7, 8, 2, 434, -701, 16829
8, 6, 0, 442, -703, 16804
10, 5, 2, 436, -701, 16789
11, 9, 6, 439, -704, 16776
8, 12, 5, 439, -695, 16763
8, 5, 5, 443, -700, 16775
6, 4, 2, 439, -691, 16767
12, 9, -1, 452, -677, 16771
14, 6, 3, 437, -672, 16765
13, 6, 3, 432, -665, 16761
9, 5, 0, 420, -684, 16746
8, 5, -2, 407, -690, 16764
11, 5, 0, 405, -702, 16783
12, 4, 4, 413, -713, 16809
3, 6, 0, 424, -687, 16824
3, 7, -3, 438, -671, 16834
9, 5, -3, 434, -652, 16810
11, 0, 5, 434, -642, 16806
7, 6, 4, 418, -654, 16801
8, 9, 8, 409, -671, 16795
8, 8, 4, 406, -681, 16803
10, 9, 1, 404, -697, 16789
8, 6, 1, 415, -698, 16776
6, 4, 0, 416, -691, 16752
7, 8, 3, 416, -693, 16732
10, 6, 0, 408, -688, 16752
9, 4, 2, 412, -689, 16754
8, 8, 1, 399, -692, 16792
9, 6, 0, 420, -690, 16786
9, 7, 4, 425, -676, 16795
11, 8, 5, 448, -674, 16791
9, 11, 2, 446, -668, 16814
6, 9, -2, 434, -678, 16825
4, 6, 3, 404, -689, 16840
7, 7, -1, 370, -716, 16840
8, 10, -4, 353, -737, 16831
14, 8, 1, 347, -765, 16834
12, 10, -4, 369, -761, 16827
10, 8, -7, 392, -748, 16814
5, 8, -2, 419, -719, 16809
6, 6, 4, 428, -691, 16792
6, 4, -4, 440, -676, 16771
5, 8, 0, 426, -685, 16761
9, 8, 8, 396, -700, 16756
9, 2, 0, 361, -732, 16744
8, 4, -6, 328, -751, 16758
8, 6, 1, 313, -755, 16765
7, 8, 4, 334, -758, 16780
12, 11, 3, 352, -738, 16773
15, 8, 1, 378, -739, 16769
11, 8, 0, 377, -735, 16754
9, 9, -2, 386, -745, 16726
8, 6, 1, 382, -748, 16716
9, 4, 2, 375, -749, 16718
11, 4, 2, 372, -743, 16744
12, 4, 3, 371, -734, 16766
11, 4, -1, 366, -734, 16793
8, 9, -5, 346, -741, 16791
8, 8, -5, 340, -745, 16762
6, 5, 0, 312, -747, 16760
11, 5, 1, 323, -746, 16739
7, 8, 2, 333, -737, 16763
8, 4, 2, 357, -737, 16789
10, 8, 1, 360, -728, 16815
8, 4, -3, 370, -722, 16830
6, 6, 1, 362, -723, 16826
8, 8, -4, 351, -724, 16814
7, 11, 0, 347, -738, 16806
5, 6, 1, 335, -747, 16813
10, 1, 4, 332, -747, 16814
11, 6, 5, 334, -743, 16817
15, 9, 3, 330, -750, 16809
13, 7, 1, 334, -745, 16778
10, 7, 3, 338, -768, 16756
11, 7, -1, 356, -763, 16725
6, 4, -1, 365, -767, 16728
7, 8, -4, 376, -754, 16735
7, 3, 5, 368, -743, 16777
6, 6, 5, 356, -736, 16790
10, 7, 7, 340, -732, 16798
12, 9, 3, 342, -749, 16776
14, 9, 3, 328, -754, 16746
12, 6, 2, 332, -764, 16732
6, 4, 0, 323, -748, 16717
8, 8, 1, 317, -733, 16737
10, 7, -4, 321, -711, 16738
8, 6, -2, 308, -695, 16767
10, 5, 2, 323, -690, 16786
8, 6, 4, 322, -688, 16817
8, 5, 3, 331, -696, 16840
3, 7, 3, 345, -720, 16841
3, 2, 3, 341, -744, 16837
12, 7, 0, 348, -763, 16800
14, 4, 0, 341, -769, 16776
12, 7, 1, 347, -762, 16753
8, 10, 6, 362, -749, 16728
8, 10, -1, 403, -744, 16732
7, 7, -3, 433, -748, 16741
6, 4, 3, 462, -765, 16761
8, 5, 0, 466, -772, 16777
6, 3, 1, 438, -777, 16782
5, 7, 5, 415, -769, 16769
6, 10, -2, 385, -751, 16746
5, 7, 1, 361, -720, 16715
2, 4, 3, 365, -694, 16708
5, 11, 2, 373, -649, 16711
12, 10, -1, 409, -651, 16724
8, 6, 2, 415, -653, 16746
10, 8, 1, 426, -683, 16766
9, 3, -1, 419, -715, 16789
8, 8, 3, 395, -739, 16807
6, 5, 3, 383, -751, 16829
7, 7, 4, 379, -754, 16823
12, 7, 3, 378, -737, 16818
7, 5, 0, 391, -715, 16803
11, 1, 4, 406, -687, 16789
11, 3, 0, 425, -682, 16773
11, 6, -5, 425, -684, 16764
10, 7, 3, 425, -693, 16759
11, 4, 3, 413, -709, 16758
12, 8, 0, 394, -705, 16773
6, 5, 0, 397, -698, 16784
5, 6, 2, 397, -689, 16800
8, 3, 3, 411, -675, 16821
8, 9, 5, 418, -687, 16822
11, 9, 1, 428, -693, 16825
9, 3, -2, 413, -723, 16806
11, 5, 4, 431, -735, 16796
7, 5, 2, 423, -750, 16781
5, 3, 5, 445, -748, 16773
10, 5, 6, 452, -747, 16755
11, 7, 5, 457, -746, 16753
10, 5, -1, 472, -731, 16741
12, 5, -1, 463, -726, 16759
11, 11, 1, 474, -704, 16750
11, 8, -2, 459, -697, 16766
12, 5, -3, 474, -685, 16756
10, 7, 0, 464, -662, 16753
5, 15, -3, 472, -655, 16752
7, 14, 0, 447, -637, 16741
10, 7, 1, 426, -656, 16722
13, 8, 0, 399, -676, 16704
8, 8, 3, 402, -701, 16695
12, 5, 1, 411, -724, 16690
10, 6, 0, 426, -725, 16711
9, 5, 1, 429, -735, 16733
13, 7, 2, 437, -739, 16756
10, 8, 0, 431, -733, 16780
10, 6, 0, 439, -748, 16784
7, 1, -1, 453, -743, 16782
6, 4, -3, 449, -741, 16798
9, 6, -4, 455, -726, 16799
10, 9, -1, 439, -705, 16846
6, 3, -2, 435, -684, 16872
8, 7, -1, 437, -674, 16878
6, 6, 3, 440, -678, 16855
7, 10, 0, 460, -673, 16798
8, 10, -2, 456, -665, 16745
7, 8, 4, 451, -660, 16726
15, 1, 6, 442, -666, 16731
12, 10, 4, 442, -678, 16777
7, 9, 4, 446, -690, 16795
7, 9, 3, 457, -694, 16808
11, 9, -4, 474, -680, 16802
8, 8, 0, 482, -676, 16773
10, 4, 1, 486, -663, 16766
8, 4, 4, 478, -661, 16770
9, 4, 0, 449, -652, 16771
10, 11, -1, 411, -655, 16794
10, 6, 0, 386, -666, 16812
8, 3, 1, 360, -673, 16825
9, 1, -4, 364, -687, 16835
10, 6, 5, 365, -694, 16849
8, 6, 6, 381, -697, 16836
6, 8, -2, 416, -697, 16832
6, 5, -5, 438, -699, 16808
10, 11, -1, 451, -692, 16783
10, 11, 1, 459, -684, 16760
8, 9, -1, 477, -683, 16759
12, 12, -3, 462, -693, 16779
8, 4, -3, 465, -701, 16805
2, 3, -2, 435, -718, 16849
10, 9, 0, 409, -729, 16874
11, 7, 6, 394, -718, 16890
5, 7, -2, 395, -709, 16880
7, 4, -5, 415, -688, 16858
9, 3, 4, 434, -675, 16819
10, 8, 5, 449, -665, 16796
10, 5, 5, 471, -647, 16769
8, 3, 4, 457, -637, 16762
7, 5, 2, 484, -624, 16753
7, 6, 4, 473, -625, 16759
8, 6, 1, 492, -633, 16782
12, 9, 0, 496, -639, 16805
8, 7, 3, 487, -654, 16842
4, 5, 0, 469, -662, 16846
10, 10, -1, 452, -685, 16836
13, 6, -2, 445, -711, 16818
10, 9, -6, 444, -722, 16784
9, 8, -1, 450, -733, 16762
10, 6, 4, 464, -728, 16744
13, 5, -1, 463, -721, 16742
11, 9, 1, 447, -709, 16744
8, 4, 5, 441, -699, 16764
8, 7, -1, 408, -669, 16793
9, 8, 0, 389, -657, 16813
12, 7, 5, 375, -645, 16830
6, 4, 4, 379, -658, 16830
8, 2, -1, 379, -672, 16806
12, 2, -1, 391, -702, 16804
11, 5, 2, 391, -706, 16774
10, 5, 1, 382, -721, 16770
7, 5, 0, 386, -712, 16761
6, 6, 0, 381, -698, 16753
7, 6, 1, 393, -683, 16761
6, 12, -2, 386, -668, 16759
8, 12, 7, 388, -656, 16764
10, 7, 5, 349, -664, 16767
16, 4, 5, 333, -675, 16780
9, 5, 2, 302, -690, 16780
10, 7, -3, 302, -705, 16786
10, 5, 1, 307, -718, 16759
3, 11, 3, 332, -728, 16743
10, 1, 1, 354, -726, 16718
11, 7, 1, 396, -719, 16727
8, 8, 2, 413, -715, 16741
8, 9, 6, 435, -688, 16774
11, 8, 0, 423, -683, 16799
7, 7, -3, 410, -679, 16818
5, 9, 0, 397, -660, 16823
10, 8, 2, 393, -667, 16813
7, 11, 1, 398, -666, 16821
4, 11, -2, 391, -681, 16801
10, 7, 2, 389, -698, 16790
12, 7, 1, 380, -712, 16788
11, 9, 2, 390, -726, 16774
9, 6, 5, 389, -729, 16781
7, 2, 2, 393, -735, 16803
14, 5, -1, 390, -743, 16805
8, 5, 0, 382, -738, 16813
4, 5, 2, 386, -738, 16817
8, 8, 4, 407, -714, 16796
9, 7, -4, 409, -710, 16794
5, 5, -2, 398, -705, 16770
6, 3, 0, 393, -715, 16762
8, 1, 3, 368, -737, 16752
5, 5, 0, 384, -744, 16750
2, 8, 4, 387, -737, 16745
11, 8, 5, 396, -725, 16737
12, 4, 6, 395, -721, 16718
7, 4, 4, 377, -719, 16705
10, 5, -6, 358, -730, 16686
11, 6, -2, 347, -738, 16701
6, 9, 1, 312, -726, 16720
4, 10, 0, 315, -713, 16766
10, 9, 7, 309, -695, 16798
11, 4, 1, 330, -675, 16805
5, 3, -4, 345, -676, 16791
7, 4, 1, 378, -681, 16765
12, 7, 6, 401, -693, 16749
12, 5, 2, 425, -707, 16734
9, 8, 3, 442, -705, 16736
6, 10, -3, 435, -702, 16710
7, 1, -3, 427, -691, 16727
8, 4, 3, 403, -691, 16709
6, 11, 4, 395, -686, 16737
11, 8, 1, 379, -690, 16740
6, 6, 0, 392, -687, 16766
11, 3, 1, 383, -690, 16777
10, 5, 2, 401, -697, 16783
10, 7, 2, 392, -710, 16790
15, 5, -2, 392, -711, 16792
6, 5, -2, 377, -707, 16789
7, 8, -2, 367, -698, 16796
4, 6, 2, 368, -682, 16791
7, 6, 4, 380, -679, 16789
8, 5, 0, 386, -687, 16793
9, 5, -1, 409, -695, 16790
7, 11, 3, 408, -707, 16786
5, 8, -3, 395, -717, 16755
12, 8, 4, 396, -712, 16751
11, 6, 1, 375, -690, 16747
8, 5, -2, 364, -656, 16774
8, 8, 1, 360, -633, 16804
10, 7, 3, 345, -631, 16828
8, 10, 3, 355, -660, 16848
10, 6, 1, 363, -703, 16856
6, 7, 1, 390, -736, 16854
12, 4, 4, 417, -752, 16854
10, 5, 4, 417, -754, 16841
6, 3, 4, 425, -746, 16830
6, 9, 1, 407, -742, 16825
5, 11, 2, 416, -738, 16799
7, 4, 1, 427, -731, 16777
6, 4, 1, 442, -738, 16754
7, 3, 3, 435, -735, 16732
9, 7, 1, 429, -746, 16734
11, 6, 1, 404, -744, 16738
8, 11, 11, 421, -747, 16764
7, 7, 4, 438, -724, 16780
9, 7, -3, 466, -704, 16804
6, 9, -3, 464, -690, 16816
11, 7, 1, 429, -687, 16816
12, 5, -3, 394, -701, 16813
12, 6, 3, 366, -715, 16805
13, 9, -1, 366, -732, 16807
8, 6, -3, 389, -735, 16788
10, 7, 4, 401, -743, 16795
6, 9, 3, 413, -753, 16793
7, 9, 2, 421, -757, 16784
11, 8, 0, 432, -760, 16785
10, 4, 1, 450, -742, 16745
6, 6, 0, 459, -729, 16717
9, 10, 0, 463, -707, 16697
8, 10, 2, 450, -695, 16697
14, 6, 0, 441, -688, 16717
11, 5, -1, 419, -686, 16723
12, 9, 2, 406, -685, 16735
11, 6, 5, 397, -695, 16723
8, 5, 2, 392, -701, 16733
6, 7, -1, 392, -715, 16754
7, 6, 2, 397, -718, 16780
9, 6, 4, 380, -722, 16805
10, 5, 3, 388, -713, 16811
10, 5, 3, 371, -714, 16815
13, 7, -1, 387, -711, 16815
12, 5, 0, 396, -706, 16817
7, 2, 2, 398, -712, 16824
6, 5, 0, 417, -707, 16812
7, 4, -2, 423, -706, 16820
13, 14, -1, 440, -708, 16791
12, 7, 3, 428, -705, 16793
7, 7, 1, 412, -706, 16790
13, 6, -3, 370, -711, 16785
9, 4, 2, 346, -719, 16799
9, 8, 4, 340, -737, 16804
5, 7, 5, 349, -734, 16801
8, 4, 4, 386, -737, 16788
10, 10, 1, 414, -733, 16789
3, 8, -1, 433, -720, 16791
11, 7, -2, 444, -718, 16796
7, 7, -4, 446, -687, 16816
8, 7, -5, 419, -670, 16801
12, 6, 1, 417, -665, 16805
7, 10, 0, 394, -678, 16792
7, 4, 4, 384, -697, 16794
6, 10, 2, 383, -719, 16804
8, 7, 1, 385, -723, 16803
8, 5, 0, 386, -722, 16810
7, 6, 3, 380, -722, 16803
9, 2, 3, 367, -707, 16803
9, 2, -3, 353, -702, 16815
16, 3, 6, 334, -688, 16822
10, 3, 8, 348, -672, 16845
9, 5, 1, 363, -681, 16844
8, 6, 0, 383, -681, 16842
7, 8, -2, 390, -699, 16827
10, 7, -4, 383, -728, 16805
9, 8, 2, 381, -747, 16781
11, 10, 2, 362, -751, 16768
8, 14, 0, 368, -743, 16752
7, 13, -3, 359, -734, 16750
8, 6, 1, 351, -723, 16769
5, 7, 2, 363, -738, 16774
8, 5, 2, 376, -755, 16788
12, 7, 3, 387, -763, 16795
10, 4, 3, 399, -779, 16791
5, 6, -1, 406, -767, 16791
8, 8, -5, 393, -787, 16787
12, 3, 1, 383, -771, 16777
14, 5, 4, 363, -773, 16770
6, 4, 7, 356, -743, 16765
4, 2, 0, 357, -724, 16757
11, 9, 0, 377, -704, 16742
11, 7, 4, 390, -696, 16734
11, 5, 3, 397, -707, 16710
9, 7, 1, 384, -712, 16712
9, 8, 2, 375, -711, 16710
6, 11, -4, 357, -713, 16738
10, 3, 0, 372, -703, 16763
14, 7, -3, 391, -712, 16791
10, 7, -1, 417, -723, 16799
10, 8, 2, 434, -746, 16780
10, 5, 5, 430, -764, 16754
5, 7, 0, 428, -775, 16742
6, 9, 2, 408, -790, 16739
14, 6, 1, 399, -791, 16764
9, 6, 5, 384, -788, 16796
8, 7, -1, 384, -762, 16820
10, 4, -2, 394, -743, 16832
6, 0, 4, 409, -704, 16815
11, 1, 0, 412, -700, 16798
10, 6, 1, 416, -696, 16767
14, 6, 0, 408, -704, 16759
13, 3, 3, 405, -705, 16766
13, 9, 4, 394, -717, 16776
9, 9, -1, 363, -727, 16805
9, 6, 1, 348, -744, 16801
12, 12, 7, 328, -768, 16795
7, 8, 6, 340, -771, 16791
14, 7, 0, 365, -758, 16780
8, 7, 2, 386, -740, 16806
10, 6, 3, 405, -715, 16812
10, 7, 3, 437, -695, 16816
11, 9, 2, 446, -683, 16792
7, 5, -1, 461, -679, 16769
7, 6, 3, 451, -690, 16769
13, 7, 2, 438, -706, 16759
11, 7, -1, 411, -730, 16775
12, 4, -2, 410, -757, 16786
12, 7, -2, 405, -776, 16798
8, 7, -8, 414, -784, 16795
9, 6, -3, 425, -788, 16808
15, 6, 3, 416, -781, 16793
10, 9, 4, 413, -776, 16788
9, 4, -2, 392, -775, 16796
11, 5, -2, 387, -770, 16796
13, 9, 3, 388, -752, 16833
12, 9, -6, 403, -740, 16850
10, 9, 1, 428, -726, 16870
5, 4, 1, 450, -712, 16870
7, 6, 1, 463, -718, 16868
11, 8, 2, 451, -700, 16848
15, 7, -2, 438, -713, 16842
14, 4, 1, 410, -714, 16818
4, 5, -1, 403, -735, 16792
7, 10, 4, 386, -754, 16772
10, 7, 3, 397, -767, 16763
13, 10, 2, 375, -777, 16770
8, 11, -3, 387, -760, 16796
8, 4, -1, 394, -753, 16782
10, 5, 5, 411, -721, 16796
6, 7, 5, 430, -711, 16763
10, 13, 4, 436, -710, 16758
13, 11, 5, 433, -709, 16767
8, 8, 4, 434, -725, 16770
11, 9, 4, 436, -722, 16782
13, 6, 5, 430, -728, 16762
6, 10, 4, 417, -714, 16762
7, 6, 1, 396, -716, 16742
5, 9, 1, 376, -718, 16748
11, 8, 4, 365, -733, 16754
11, 6, 3, 370, -747, 16758
0, 5, 3, 380, -760, 16760
5, 8, 1, 404, -750, 16764
8, 7, 3, 427, -722, 16756
5, 8, 2, 437, -708, 16744
11, 9, 1, 434, -675, 16744
7, 7, 2, 419, -682, 16733
12, 6, -1, 404, -687, 16755
14, 6, -5, 401, -705, 16753
7, 6, -1, 401, -724, 16785
7, 7, 1, 390, -732, 16805
10, 8, 5, 375, -723, 16825
13, 11, 7, 371, -722, 16835
14, 8, 0, 371, -704, 16810
6, 6, 4, 387, -699, 16773
8, 4, 1, 421, -703, 16742
11, 7, -1, 441, -698, 16718
6, 8, 2, 482, -699, 16732
3, 5, 2, 503, -694, 16732
11, 3, 2, 514, -688, 16735
16, 8, -2, 508, -691, 16741
9, 10, -3, 488, -699, 16732
1, 5, 1, 464, -708, 16732
10, 1, 4, 441, -713, 16729
4, 6, 1, 441, -711, 16720
3, 5, -3, 423, -713, 16715
2, 6, 4, 428, -724, 16718
7, 6, 0, 415, -730, 16736
13, 5, 2, 422, -744, 16761
11, 6, 6, 425, -744, 16772
11, 5, -1, 460, -740, 16795
9, 3, 0, 479, -724, 16787
9, 4, 3, 491, -706, 16786
9, 7, 0, 460, -694, 16764
9, 5, -3, 417, -688, 16734
12, 3, 0, 367, -696, 16709
12, 9, 1, 332, -702, 16699
10, 7, -1, 324, -704, 16717
13, 3, 0, 332, -699, 16754
17, 5, 4, 355, -701, 16810
17, 10, -3, 368, -706, 16842
6, 9, 5, 381, -716, 16861
8, 6, 2, 391, -721, 16847
13, 6, 1, 392, -706, 16812
15, 4, 1, 413, -693, 16762
13, 6, -1, 429, -678, 16747
12, 5, 0, 460, -681, 16731
11, 5, 1, 477, -692, 16745
5, 5, 1, 495, -701, 16749
7, 6, 3, 499, -717, 16762
6, 6, -3, 484, -735, 16765
9, 7, 0, 473, -754, 16782
12, 5, 1, 452, -776, 16810
13, 10, 8, 425, -785, 16824
11, 6, -3, 421, -768, 16832
11, 7, 1, 412, -758, 16847
10, 0, 3, 415, -726, 16825
11, 6, 0, 429, -716, 16827
7, 6, 1, 419, -710, 16803
6, 10, 4, 411, -717, 16773
6, 7, 1, 394, -730, 16751
6, 4, 3, 380, -723, 16739
10, 2, 0, 376, -725, 16729
7, 11, 3, 368, -706, 16750
12, 10, -1, 357, -711, 16761
10, 4, -3, 338, -708, 16791
7, 5, -4, 318, -736, 16809
6, 9, 0, 320, -752, 16838
6, 8, 4, 326, -764, 16870
13, 4, -1, 352, -761, 16871
12, 7, -2, 387, -748, 16882
8, 6, -3, 404, -726, 16871
11, 10, 0, 414, -704, 16839
8, 3, 1, 412, -696, 16831
12, 1, 4, 394, -691, 16807
7, 2, 2, 387, -707, 16801
6, 6, 0, 386, -726, 16807
6, 9, 6, 389, -746, 16817
8, 7, 1, 388, -761, 16833
8, 6, -1, 396, -743, 16832
0, 7, -1, 382, -731, 16827
6, 6, 3, 392, -712, 16817
9, 6, 3, 396, -700, 16800
10, 5, 2, 402, -710, 16777
14, 7, -2, 398, -708, 16760
10, 7, -2, 392, -734, 16748
9, 3, 2, 376, -744, 16757
11, 6, 1, 374, -765, 16757
16, 9, 1, 364, -772, 16750
10, 9, 4, 363, -760, 16719
7, 4, 3, 358, -751, 16698
7, 8, 0, 361, -724, 16694
10, 9, 1, 355, -721, 16721
13, 8, 1, 379, -701, 16748
8, 6, 3, 376, -697, 16777
8, 12, 6, 389, -684, 16787
10, 9, 0, 396, -684, 16801
9, 6, 3, 384, -692, 16785
5, 4, 1, 379, -718, 16780
11, 9, 4, 348, -739, 16764
7, 11, -1, 341, -759, 16760
4, 10, -6, 322, -763, 16771
5, 4, -3, 317, -752, 16783
7, 4, 0, 336, -749, 16786
11, 11, 3, 351, -743, 16779
9, 7, 1, 365, -729, 16767
11, 11, 3, 374, -712, 16754
7, 6, 4, 373, -683, 16768
11, 4, 4, 373, -660, 16772
14, 3, -1, 383, -648, 16815
10, 7, -2, 398, -659, 16832
8, 5, -2, 398, -672, 16860
11, 10, -2, 398, -682, 16876
11, 11, -1, 387, -693, 16870
7, 6, -2, 392, -696, 16845
7, 11, 2, 383, -703, 16819
11, 7, 2, 380, -728, 16775
9, 7, 2, 355, -720, 16763
4, 3, 0, 355, -732, 16748
11, 5, 4, 345, -707, 16753
7, 3, 2, 365, -686, 16757
10, 3, 3, 377, -668, 16762
15, 7, 2, 394, -661, 16790
10, 8, 1, 401, -663, 16786
13, 8, 1, 415, -675, 16793
12, 7, 3, 414, -683, 16784
4, 5, -2, 429, -681, 16777
15, 8, -1, 420, -689, 16773
16, 6, 6, 430, -683, 16777
14, 9, 0, 426, -698, 16790
6, 6, 0, 421, -706, 16781
4, 6, 5, 419, -718, 16782
8, 1, -2, 406, -724, 16774
11, 3, -3, 406, -734, 16763
8, 6, -1, 422, -730, 16764
12, 7, -3, 428, -733, 16772
7, 4, 3, 448, -736, 16782
13, 6, 3, 440, -746, 16775
9, 11, 1, 431, -754, 16785
11, 10, 1, 412, -763, 16760
5, 8, -1, 398, -750, 16745
5, 3, -1, 387, -748, 16743
13, 3, 2, 369, -725, 16744
5, 14, -2, 352, -721, 16771
4, 7, -1, 344, -700, 16788
10, 5, -2, 339, -694, 16806
8, 6, -6, 343, -673, 16802
8, 10, 2, 361, -664, 16787
12, 6, 4, 376, -663, 16777
13, 1, 0, 379, -670, 16767
14, 3, -1, 390, -686, 16778
6, 4, 0, 379, -694, 16793
6, 8, 2, 374, -695, 16815
9, 2, 1, 370, -687, 16836
12, 5, 4, 367, -678, 16840
13, 6, 2, 369, -697, 16841
4, 4, -2, 373, -695, 16831
10, 7, 0, 395, -711, 16807
8, 3, 1, 409, -698, 16792
5, 8, -1, 446, -681, 16790
5, 6, 1, 465, -667, 16769
5, 2, 2, 483, -663, 16776
7, 5, 1, 482, -680, 16784
4, 2, -4, 469, -706, 16787
9, 8, 2, 439, -745, 16802
14, 9, 0, 409, -764, 16806
6, 9, 2, 387, -788, 16805
7, 7, 2, 361, -794, 16808
10, 5, 5, 368, -788, 16820
8, 5, -8, 376, -764, 16834
8, 9, -4, 395, -745, 16822
10, 6, 0, 417, -724, 16827
7, 6, 2, 425, -728, 16805
4, 8, 3, 427, -741, 16813
6, 8, -2, 432, -765, 16822
7, 4, 5, 427, -762, 16836
11, 6, 0, 442, -758, 16844
12, 7, 1, 445, -729, 16843
12, 4, -2, 462, -702, 16835
8, 6, 3, 450, -665, 16825
7, 9, -2, 453, -640, 16794
11, 6, 1, 442, -635, 16779
5, 10, 0, 444, -643, 16759
8, 8, 2, 449, -671, 16756
11, 7, -1, 445, -696, 16757
6, 2, 4, 437, -704, 16755
3, 10, 5, 413, -702, 16739
10, 10, 7, 413, -687, 16746
12, 5, 0, 392, -681, 16753
12, 1, 0, 384, -677, 16759
10, 5, -4, 376, -695, 16766
8, 9, -5, 364, -704, 16764
15, 6, 0, 352, -715, 16763
12, 5, 1, 350, -722, 16759
9, 8, 5, 347, -727, 16765
7, 8, 3, 369, -732, 16766
9, 9, 5, 412, -737, 16764
8, 13, 4, 461, -746, 16766
6, 9, 3, 485, -741, 16761
10, 5, 0, 502, -742, 16749
6, 6, 0, 483, -751, 16725
11, 4, -1, 461, -744, 16723
11, 6, 2, 432, -760, 16738
4, 7, 0, 404, -784, 16775
10, 6, -3, 387, -793, 16823
8, 6, 2, 373, -823, 16854
5, 7, 0, 371, -814, 16859
6, 7, 3, 372, -797, 16838
6, 7, 1, 373, -766, 16816
5, 10, 2, 382, -750, 16793
6, 5, 4, 398, -732, 16779
4, 4, 0, 403, -744, 16778
12, 7, 4, 409, -759, 16761
14, 5, 1, 403, -774, 16743
7, 7, -2, 393, -792, 16731
6, 6, 3, 408, -799, 16712
9, 7, 1, 410, -791, 16706
9, 6, 0, 418, -789, 16708
9, 3, 2, 407, -779, 16711
11, 6, 5, 377, -769, 16740
12, 3, 1, 359, -768, 16761
10, 4, 2, 350, -759, 16784
7, 6, 4, 359, -760, 16783
6, 5, 0, 391, -767, 16771
10, 7, -1, 415, -782, 16763
4, -2, 4, 442, -799, 16772
3, 6, 6, 451, -811, 16779
7, 7, -5, 456, -823, 16793
8, 5, 2, 456, -814, 16798
10, 6, 1, 466, -810, 16807
16, 6, 1, 471, -799, 16801
11, 9, -4, 478, -781, 16810
11, 3, 1, 466, -791, 16808
7, 10, 5, 453, -788, 16814
6, 9, -1, 413, -794, 16813
10, 4, -1, 395, -804, 16824
15, 7, -2, 367, -800, 16809
12, 4, -1, 371, -811, 16810
10, 7, -1, 370, -801, 16820
7, 10, 1, 394, -812, 16816
6, 8, 3, 400, -798, 16810
10, 1, 0, 426, -805, 16799
12, 0, 1, 448, -799, 16761
9, 2, 5, 444, -792, 16756
9, 3, 5, 442, -781, 16746
10, 0, 7, 408, -776, 16763
10, 4, 3, 381, -788, 16776
6, 6, -3, 373, -802, 16777
8, 2, 1, 385, -818, 16786
7, 11, -1, 395, -811, 16763
10, 11, 1, 404, -791, 16747
12, 6, 0, 395, -764, 16730
11, 6, 5, 383, -733, 16709
5, 5, -1, 369, -721, 16719
6, 8, -2, 374, -709, 16730
9, 7, 0, 393, -729, 16751
11, 6, 4, 403, -746, 16763
8, 5, 3, 414, -780, 16757
8, 6, 1, 404, -794, 16761
7, 5, 3, 401, -798, 16754
8, 3, 1, 405, -776, 16777
13, 1, 1, 415, -757, 16798
9, 5, 2, 444, -728, 16834
9, 4, 3, 445, -711, 16834
5, 5, 1, 464, -694, 16850
2, 8, -2, 459, -680, 16820
7, 11, 0, 462, -673, 16808
13, 6, 1, 449, -687, 16784
10, 9, -3, 421, -698, 16789
9, 7, -2, 408, -717, 16789
12, 3, 2, 384, -727, 16799
9, 9, 2, 375, -716, 16807
11, 5, 2, 364, -711, 16802
13, 5, 2, 340, -703, 16807
6, 8, 4, 303, -709, 16812
6, 9, 3, 281, -721, 16811
9, 3, 4, 269, -731, 16801
10, 5, 0, 298, -721, 16785
9, 7, -1, 331, -706, 16773
11, 13, 1, 361, -681, 16777
11, 14, 4, 377, -659, 16781
9, 10, 1, 386, -645, 16785
5, 13, 1, 387, -647, 16765
11, 15, -1, 382, -644, 16740
13, 7, -2, 397, -662, 16728
7, 7, -2, 390, -679, 16708
11, 5, 2, 395, -698, 16719
11, 4, 1, 402, -726, 16719
10, 6, -1, 385, -721, 16723
10, 5, 0, 400, -720, 16729
10, 10, 1, 388, -697, 16721
11, 6, 0, 408, -684, 16724
10, 8, 2, 392, -666, 16729
9, 8, 3, 381, -677, 16736
11, 8, 2, 352, -669, 16753
7, 4, 1, 328, -687, 16765
8, 4, 1, 329, -680, 16763
7, 7, -2, 329, -683, 16764
6, 7, 2, 354, -663, 16759
6, 8, 0, 375, -658, 16761
6, 7, 0, 389, -645, 16757
9, 6, 0, 416, -652, 16773
4, 8, 4, 425, -657, 16772
10, 8, 3, 428, -676, 16808
14, 4, -2, 392, -672, 16833
13, 10, -1, 354, -670, 16866
12, 9, -2, 300, -641, 16879
6, 9, 0, 277, -635, 16857
9, 5, -6, 271, -637, 16832
11, 6, -2, 285, -655, 16806
8, 7, 2, 319, -682, 16788
6, 8, 1, 343, -690, 16795
8, 8, 2, 382, -679, 16804
13, 8, 2, 404, -660, 16804
12, 5, 2, 408, -640, 16823
10, 6, 1, 405, -633, 16820
9, 5, -2, 391, -632, 16791
8, 6, 1, 363, -638, 16778
6, 7, 4, 357, -634, 16732
6, 9, 4, 341, -623, 16712
6, 9, 4, 334, -626, 16692
6, 8, 2, 335, -618, 16693
12, 4, 6, 338, -624, 16692
11, 6, 2, 355, -620, 16724
9, 6, -1, 366, -625, 16738
16, 9, 4, 385, -629, 16776
12, 11, 8, 376, -639, 16787
5, 5, 4, 381, -644, 16793
7, 7, 7, 388, -644, 16799
8, 6, 0, 407, -628, 16793
7, 10, -2, 417, -627, 16801
10, 7, 1, 432, -632, 16803
7, 4, 2, 419, -653, 16789
2, 3, 2, 409, -689, 16790
7, 7, 1, 407, -719, 16765
8, 9, 1, 421, -717, 16779
15, 5, 3, 414, -733, 16767
19, 7, 2, 422, -709, 16782
12, 6, 3, 400, -705, 16769
10, 4, -1, 398, -697, 16768
7, 6, 2, 399, -695, 16763
6, 5, -4, 403, -707, 16761
13, 8, -1, 412, -712, 16785
10, 9, 9, 426, -741, 16791
4, 5, 7, 445, -765, 16805
4, 4, 2, 446, -780, 16804
4, 9, -2, 454, -795, 16760
7, 4, 0, 417, -790, 16728
9, 6, 1, 402, -774, 16709
11, 5, -3, 378, -743, 16689
10, 10, 3, 374, -725, 16715
8, 8, 7, 381, -687, 16713
10, 6, 0, 382, -675, 16710
7, 6, -1, 417, -663, 16688
3, 5, 2, 427, -661, 16682
9, 7, -2, 459, -661, 16689
15, 4, 0, 467, -669, 16699
10, 0, 1, 470, -677, 16742
7, 5, 2, 454, -698, 16761
7, 7, 3, 440, -711, 16771
9, 6, 5, 422, -730, 16764
9, 8, 3, 421, -749, 16755
6, 3, 0, 430, -763, 16731
10, 7, 5, 453, -763, 16728
6, 5, -1, 456, -752, 16735
8, 4, 0, 469, -740, 16754
10, 3, 0, 455, -717, 16769
11, 4, 0, 464, -723, 16790
10, 5, 0, 464, -733, 16779
9, 11, 4, 473, -743, 16770
10, 11, 6, 462, -751, 16777
9, 9, 2, 462, -757, 16767
10, 8, 2, 441, -741, 16774
9, 7, 0, 439, -749, 16776
4, 4, 1, 432, -747, 16763
6, 8, 2, 427, -757, 16777
12, 9, 3, 424, -760, 16793
8, 6, 3, 431, -756, 16793
6, 6, 2, 442, -735, 16806
7, 5, 0, 431, -717, 16782
6, 5, 2, 425, -684, 16779
7, 9, -3, 407, -667, 16774
11, 7, -8, 410, -653, 16754
11, 7, -2, 412, -659, 16745
7, 8, 1, 439, -671, 16722
10, 4, 0, 451, -688, 16708
8, 8, 3, 458, -711, 16706
10, 8, 0, 452, -711, 16715
8, 3, 1, 442, -724, 16730
7, 5, 6, 411, -717, 16739
10, 4, 0, 390, -720, 16759
10, 5, 4, 372, -709, 16760
10, 6, 4, 372, -707, 16786
6, 11, -1, 386, -697, 16795
7, 11, 3, 409, -703, 16820
7, 10, 3, 427, -715, 16825
14, 5, 3, 437, -738, 16841
12, 11, 0, 429, -758, 16822
9, 4, 5, 427, -753, 16811
10, 3, -2, 415, -754, 16799
10, 8, 3, 397, -728, 16785
15, 8, 4, 385, -714, 16787
11, 7, 3, 352, -711, 16793
7, 6, 0, 347, -704, 16781
8, 4, 1, 323, -702, 16768
11, 3, -1, 342, -708, 16750
8, 8, 1, 345, -696, 16735
11, 7, -2, 375, -690, 16751
12, 3, -3, 380, -684, 16779
14, 9, 3, 393, -678, 16827
9, 6, 3, 397, -679, 16861
3, 8, 1, 390, -690, 16887
6, 7, 4, 401, -701, 16870
14, 9, 4, 395, -698, 16850
10, 12, 7, 385, -706, 16814
10, 6, 4, 377, -697, 16801
14, 6, 3, 351, -690, 16779
15, 9, 4, 321, -699, 16770
5, 9, 2, 315, -714, 16726
8, 8, 2, 298, -726, 16692
10, 8, 3, 297, -742, 16654
7, 5, 1, 284, -714, 16646
10, 6, 4, 298, -695, 16662
12, 12, 3, 300, -679, 16695
5, 5, 0, 323, -681, 16725
10, 4, -2, 339, -694, 16754
16, 6, 3, 342, -708, 16775
11, 7, 3, 333, -708, 16789
9, 7, 5, 320, -698, 16782
10, 7, -1, 321, -707, 16770
17, 4, 1, 324, -701, 16735
17, 5, 2, 330, -713, 16719
9, 4, 6, 341, -719, 16720
6, 4, 3, 333, -711, 16745
9, 6, -1, 318, -713, 16786
9, 3, -1, 326, -696, 16824
13, 3, 1, 315, -695, 16820
13, 2, 1, 340, -695, 16825
8, 5, 6, 335, -715, 16784
7, 6, 10, 348, -730, 16779
10, 7, 3, 342, -743, 16784
5, 5, -1, 343, -745, 16803
11, 11, -2, 343, -743, 16817
11, 8, 3, 364, -731, 16833
5, 5, -1, 370, -723, 16807
7, 9, -1, 395, -706, 16782
10, 5, -3, 392, -681, 16756
7, 2, -7, 382, -674, 16727
9, 3, -1, 369, -671, 16714
11, 7, 2, 342, -676, 16719
4, 8, 0, 322, -690, 16709
-2, 8, -1, 304, -711, 16728
2, 8, -2, 306, -726, 16722
8, 8, 1, 303, -744, 16730
10, 6, -1, 318, -758, 16746
9, 3, -2, 332, -765, 16747
14, 2, 1, 346, -764, 16783
9, 2, 6, 361, -767, 16795
9, 4, 7, 370, -764, 16808
14, 5, 4, 377, -748, 16820
13, 4, -1, 373, -736, 16821
8, 9, 1, 383, -717, 16822
7, 7, 3, 378, -703, 16827
12, 5, 3, 379, -691, 16802
6, 5, 4, 378, -696, 16803
7, 5, 5, 379, -711, 16792
11, 9, 4, 376, -730, 16797
12, 8, 1, 387, -744, 16807
9, 4, 5, 388, -748, 16817
4, 5, 3, 398, -742, 16805
12, 8, 5, 397, -741, 16815
8, 7, -1, 389, -742, 16795
10, 5, 1, 381, -753, 16792
11, 7, 2, 374, -761, 16776
12, 7, 0, 373, -770, 16763
6, 10, 0, 369, -777, 16766
6, 3, 3, 365, -794, 16767
10, 8, 0, 390, -787, 16789
11, 11, 2, 399, -780, 16804
5, 6, 1, 434, -772, 16819
12, 8, 1, 456, -751, 16815
9, 6, 2, 460, -761, 16810
6, 8, 0, 468, -754, 16780
2, 6, 3, 468, -759, 16774
5, 0, 2, 463, -743, 16752
9, 3, -1, 454, -737, 16759
5, 7, 1, 445, -713, 16775
7, 5, 2, 452, -705, 16785
9, 7, -1, 436, -702, 16801
10, 5, 2, 453, -685, 16805
13, 10, 2, 438, -685, 16810
9, 13, 2, 440, -669, 16837
6, 11, 0, 426, -670, 16835
2, 9, 2, 414, -671, 16858
6, 5, 3, 403, -676, 16839
7, 5, 7, 390, -685, 16823
3, 4, -2, 390, -676, 16803
9, 7, 1, 390, -667, 16781
11, 6, -2, 395, -663, 16781
10, 2, -5, 404, -657, 16787
11, 3, -3, 407, -667, 16807
7, 8, 1, 416, -670, 16827
-1, 8, 2, 399, -676, 16848
6, 8, 8, 400, -678, 16841
13, 5, 6, 398, -672, 16834
10, 6, -1, 398, -672, 16808
14, 3, 1, 422, -678, 16778
11, 7, 0, 432, -673, 16746
8, 11, 0, 444, -670, 16722
9, 11, -1, 442, -677, 16710
6, 8, 0, 441, -681, 16709
8, 6, -1, 439, -701, 16706
8, 7, 3, 431, -715, 16727
8, 5, -1, 422, -711, 16728
6, 5, -1, 415, -725, 16755
-3, 5, 3, 389, -708, 16767
6, 8, 3, 372, -725, 16777
13, 7, 2, 367, -722, 16772
13, 5, 3, 370, -713, 16762
2, 4, -1, 378, -715, 16757
2, 10, 1, 408, -703, 16780
8, 10, 2, 433, -696, 16805
8, 4, 0, 461, -700, 16843
5, 3, 1, 474, -701, 16877
10, 1, 4, 473, -705, 16886
12, 8, 6, 456, -715, 16886
10, 7, 7, 432, -717, 16865
13, 5, 7, 415, -708, 16834
15, 7, 1, 392, -697, 16793
15, 11, 0, 380, -683, 16762
12, 7, 1, 369, -672, 16750
13, 2, 0, 370, -676, 16752
10, 10, 1, 376, -681, 16770
7, 7, 4, 396, -704, 16786
10, 7, 3, 407, -716, 16783
12, 6, 2, 422, -753, 16781
5, 8, 2, 425, -758, 16784
3, 9, 0, 410, -769, 16793
10, 9, -1, 396, -762, 16811
12, 8, -3, 382, -752, 16811
3, 5, -3, 382, -739, 16771
12, 8, 3, 379, -737, 16739
6, 5, 6, 396, -722, 16695
6, 6, 4, 399, -727, 16691
9, 8, 2, 412, -731, 16711
11, 11, 3, 424, -742, 16722
15, 7, 5, 426, -736, 16731
17, 3, -2, 430, -719, 16731
7, 5, 3, 431, -709, 16721
4, 7, 2, 429, -684, 16726
12, 4, 4, 422, -687, 16727
9, 2, 2, 413, -684, 16725
9, 4, 0, 400, -688, 16743
8, 1, 2, 382, -690, 16749
13, 6, 4, 381, -698, 16770
10, 10, 1, 369, -701, 16767
11, 5, 2, 373, -716, 16792
10, -1, 4, 367, -723, 16777
10, 4, 2, 373, -745, 16797
10, 5, 2, 384, -746, 16788
11, 6, 0, 387, -736, 16762
12, 5, 2, 405, -710, 16744
6, 4, 2, 401, -685, 16738
3, 4, -2, 404, -678, 16756
8, 2, -3, 396, -686, 16807
8, 5, 3, 392, -716, 16834
13, 7, 2, 382, -744, 16865
9, 7, 4, 387, -752, 16856
5, 4, -2, 404, -751, 16844
6, 9, 1, 429, -739, 16841
10, 14, 2, 441, -726, 16824
8, 6, -2, 456, -712, 16822
11, 8, -4, 417, -711, 16809
13, 5, -1, 407, -699, 16777
9, 3, 3, 357, -696, 16761
3, 5, 5, 355, -698, 16746
4, 2, 4, 343, -692, 16737
4, 4, -3, 368, -703, 16744
3, 6, 1, 369, -699, 16742
7, 3, 6, 367, -713, 16733
7, 9, 4, 353, -705, 16726
6, 9, 2, 333, -699, 16714
11, 11, 5, 325, -692, 16713
8, 10, 5, 339, -699, 16704
7, 7, 2, 355, -709, 16708
5, 9, 1, 367, -741, 16730
11, 8, -2, 377, -770, 16744
9, 7, 1, 372, -776, 16766
7, 7, 4, 346, -776, 16775
7, 9, 6, 346, -765, 16781
5, 7, 3, 336, -739, 16786
6, 8, 2, 353, -734, 16807
9, 9, 1, 371, -728, 16813
9, 6, 0, 380, -722, 16808
10, 9, 2, 381, -714, 16808
11, 6, 2, 365, -702, 16807
9, 8, 0, 350, -703, 16812
4, 5, 1, 334, -702, 16829
7, 3, 1, 329, -717, 16841
10, 6, 2, 331, -715, 16838
10, 9, -1, 329, -735, 16851
6, 7, 5, 344, -729, 16844
6, 8, 7, 345, -750, 16822
11, 3, 8, 369, -751, 16807
16, 6, 1, 383, -756, 16753
10, 9, 2, 408, -765, 16731
9, 9, -1, 414, -749, 16706
10, 7, 1, 412, -753, 16699
15, 6, 6, 384, -741, 16707
10, 11, 4, 370, -726, 16719
6, 3, 1, 349, -698, 16734
11, 3, 2, 352, -686, 16743
8, 11, -1, 346, -666, 16755
9, 0, 0, 347, -676, 16764
9, 4, 4, 338, -687, 16764
8, 10, 2, 337, -704, 16776
10, 5, 0, 338, -733, 16777
9, 4, 3, 362, -740, 16784
4, 4, 1, 371, -772, 16794
10, 3, 1, 414, -779, 16797
12, 7, 5, 431, -779, 16785
10, 3, 1, 432, -771, 16779
9, -2, 1, 409, -745, 16758
13, 3, -1, 379, -719, 16761
6, 0, 4, 352, -705, 16772
8, 6, 2, 352, -693, 16779
12, 5, 0, 372, -681, 16794
13, 4, -3, 382, -654, 16789
14, 8, -3, 387, -631, 16784
5, 8, 4, 395, -621, 16786
12, 5, 2, 407, -633, 16791
8, 5, 3, 425, -650, 16793
9, 5, -2, 444, -663, 16795
8, 4, -5, 457, -681, 16798
8, 5, 1, 435, -669, 16806
8, 7, 2, 426, -674, 16817
9, 6, 1, 409, -662, 16837
13, 8, 3, 407, -663, 16843
12, 6, 2, 413, -654, 16835
9, 5, 0, 425, -659, 16835
4, 4, -5, 422, -658, 16819
7, 5, -5, 427, -665, 16810
7, 8, -2, 421, -670, 16799
9, 6, 6, 395, -674, 16783
12, 6, 4, 378, -661, 16753
8, 8, 1, 346, -640, 16720
10, 7, -2, 337, -625, 16687
16, 5, 2, 344, -635, 16683
12, 0, 2, 381, -645, 16703
5, 2, 3, 411, -682, 16734
3, 5, 2, 435, -704, 16764
7, 6, -2, 429, -726, 16761
8, 6, 2, 418, -742, 16770
10, 7, 5, 389, -736, 16762
10, 7, 3, 384, -719, 16768
11, 12, 3, 397, -689, 16773
7, 10, -1, 402, -667, 16772
7, 9, 2, 415, -666, 16772
7, 5, -2, 414, -679, 16787
12, 9, -2, 408, -692, 16798
9, 8, 1, 387, -694, 16798
10, 5, 1, 394, -693, 16788
8, 11, 5, 387, -673, 16764
8, 7, 1, 397, -676, 16740
11, 4, 3, 411, -674, 16727
7, 5, -1, 405, -672, 16741
6, 7, 0, 406, -677, 16758
8, 7, 0, 412, -693, 16780
6, 6, 1, 407, -704, 16795
5, 6, 2, 431, -723, 16791
10, 5, 1, 446, -728, 16776
16, 11, 3, 438, -723, 16773
6, 8, 1, 436, -702, 16763
6, 5, 1, 415, -684, 16780
11, 8, -4, 388, -669, 16780
11, 4, -5, 392, -658, 16769
7, 5, 2, 390, -659, 16743
7, 1, 2, 395, -665, 16725
6, 8, 2, 404, -665, 16705
8, 9, 1, 402, -662, 16707
8, 6, 7, 406, -658, 16722
5, 7, 0, 397, -662, 16716
7, 10, 0, 399, -665, 16728
7, 11, 1, 402, -669, 16731
8, 5, -1, 409, -676, 16751
12, 3, -1, 413, -659, 16761
7, 7, -2, 405, -661, 16777
9, 6, 3, 383, -646, 16776
15, 5, 3, 366, -654, 16776
11, 10, 1, 352, -654, 16759
4, 5, 0, 355, -672, 16758
7, 2, -2, 355, -676, 16748
8, 4, -2, 366, -698, 16776
6, 6, 0, 351, -712, 16804
2, 5, 3, 344, -735, 16842
7, 0, -2, 336, -758, 16861
11, 2, -4, 341, -759, 16852
10, 1, -7, 372, -764, 16820
4, 2, -2, 407, -735, 16769
6, 6, 0, 451, -739, 16742
11, 6, 0, 451, -731, 16698
14, 4, 3, 458, -732, 16701
7, 5, -2, 427, -731, 16701
5, 9, 1, 420, -719, 16712
5, 8, -3, 405, -696, 16710
10, 7, 2, 402, -699, 16723
11, 7, 2, 406, -689, 16720
11, 9, 1, 393, -698, 16737
9, 9, 2, 400, -712, 16737
13, 4, 2, 396, -728, 16737
7, 8, 1, 405, -746, 16736
3, 4, -3, 411, -757, 16720
9, 9, 0, 422, -760, 16742
6, 6, 3, 415, -763, 16757
6, 3, 0, 405, -759, 16789
3, 5, -2, 382, -760, 16814
12, 3, 2, 365, -744, 16853
10, 2, 0, 353, -737, 16846
9, 3, 3, 365, -735, 16853
9, 5, 7, 379, -728, 16828
6, 10, 8, 384, -749, 16815
10, 10, 3, 385, -757, 16780
6, 5, 0, 369, -778, 16765
11, 4, 1, 350, -789, 16724
14, 6, 2, 356, -797, 16710
10, 7, 3, 369, -786, 16724
6, 5, -1, 393, -770, 16741
9, 8, 0, 398, -755, 16774
10, 6, -1, 419, -747, 16777
8, 5, 0, 414, -750, 16780
5, 4, -1, 439, -753, 16774
8, 5, 1, 431, -765, 16748
4, 10, 0, 426, -754, 16737
16, 9, 3, 415, -754, 16735
14, 8, 4, 389, -751, 16722
6, 2, 3, 391, -750, 16750
7, 8, 2, 402, -756, 16761
7, 4, 1, 409, -744, 16785
16, 4, -2, 442, -743, 16785
7, 9, -5, 457, -728, 16791
9, 8, -5, 469, -729, 16773
12, 8, -1, 479, -733, 16765
10, 7, -1, 471, -727, 16753
6, 5, -1, 469, -738, 16737
5, 4, 3, 457, -731, 16745
9, 6, 2, 452, -737, 16726
9, 6, 1, 412, -735, 16732
9, 4, 1, 403, -732, 16734
11, 3, -1, 368, -731, 16740
5, 4, -1, 382, -742, 16759
10, 5, 1, 396, -764, 16769
8, 8, 6, 422, -782, 16798
6, 14, 0, 427, -800, 16803
5, 10, -5, 427, -805, 16812
9, 7, -5, 420, -794, 16826
13, 7, 1, 420, -784, 16819
8, 7, 0, 416, -759, 16827
11, 4, -3, 423, -737, 16810
8, 5, 2, 411, -722, 16803
7, 3, -3, 419, -703, 16785
8, 5, 3, 405, -686, 16774
12, 8, 3, 390, -667, 16774
8, 9, 0, 370, -661, 16787
7, 6, 1, 359, -668, 16804
11, 9, 6, 346, -691, 16820
6, 5, 3, 357, -734, 16838
12, 4, 2, 367, -769, 16838
12, 7, 7, 381, -791, 16839
5, 5, 1, 414, -792, 16834
12, 2, 5, 429, -786, 16829
9, 8, 3, 445, -766, 16804
7, 7, 0, 458, -751, 16788
9, 7, 0, 446, -732, 16754
7, 7, 3, 453, -707, 16740
13, 5, 7, 440, -678, 16720
10, 1, -1, 439, -656, 16735
7, 2, -5, 438, -652, 16737
11, 3, 2, 454, -654, 16744
7, 7, -3, 472, -653, 16748
11, 9, -4, 495, -658, 16758
12, 7, 3, 510, -664, 16761
6, 4, 0, 508, -675, 16768
8, 10, 0, 482, -700, 16773
8, 10, -1, 456, -714, 16787
7, 5, 1, 431, -716, 16802
3, 4, 7, 405, -701, 16817
7, 7, 6, 389, -668, 16823
12, 6, 1, 374, -643, 16815
10, 4, 1, 353, -632, 16817
9, 6, 2, 360, -623, 16815
15, 5, 2, 357, -639, 16826
13, 3, -4, 371, -650, 16829
9, 4, -1, 384, -677, 16832
15, 7, 2, 402, -703, 16811
10, 6, 0, 428, -737, 16795
7, 6, -4, 436, -752, 16790
8, 5, -5, 453, -749, 16777
7, 10, -1, 445, -730, 16791
12, 4, 5, 453, -702, 16786
10, 7, 3, 458, -663, 16784
8, 7, -2, 452, -646, 16773
10, 9, -2, 465, -634, 16771
9, 8, 3, 453, -635, 16758
8, 5, -1, 455, -635, 16771
12, 7, 3, 441, -644, 16778
7, 4, 0, 426, -640, 16797
8, 8, -3, 411, -665, 16788
14, 7, -1, 403, -683, 16775
4, 8, 5, 389, -700, 16713
9, 10, 4, 381, -714, 16669
12, 8, 1, 375, -711, 16630
9, 8, 5, 370, -710, 16596
8, 5, 1, 381, -718, 16606
8, 7, 2, 398, -720, 16631
13, 7, 3, 415, -714, 16669
12, 4, 1, 435, -695, 16723
6, 6, 2, 434, -676, 16775
7, 5, 4, 439, -650, 16820
12, 7, 2, 417, -657, 16865
8, 10, 4, 406, -665, 16893
5, 8, -1, 401, -691, 16902
8, 9, 0, 390, -694, 16893
6, 9, 4, 393, -708, 16864
9, 7, 1, 389, -719, 16841
11, 3, 3, 395, -718, 16816
9, 7, 1, 412, -734, 16798
7, 8, 2, 445, -731, 16776
3, 8, 1, 480, -719, 16748
7, 4, -1, 482, -714, 16723
11, 10, 3, 485, -708, 16705
15, 8, 3, 446, -707, 16704
12, 9, 0, 438, -703, 16712
12, 8, 4, 416, -707, 16726
10, 8, 0, 410, -707, 16752
7, 9, -2, 398, -722, 16769
7, 11, 0, 411, -721, 16778
6, 10, 3, 401, -722, 16790
7, 8, 3, 415, -707, 16776
12, 9, -1, 405, -695, 16775
8, 9, -3, 374, -689, 16770
4, 7, -5, 349, -703, 16783
11, 8, 6, 331, -710, 16764
8, 6, 1, 326, -729, 16776
8, 2, 2, 347, -723, 16756
2, 2, 0, 371, -722, 16770
5, 6, 0, 394, -712, 16768
7, 4, 4, 399, -718, 16761
11, 7, 6, 400, -726, 16761
12, 10, 5, 391, -745, 16720
10, 5, 3, 388, -748, 16717
11, 6, 3, 390, -744, 16718
9, 6, 0, 393, -742, 16736
8, 2, 2, 407, -731, 16783
8, 3, 2, 399, -742, 16815
8, 6, 4, 414, -749, 16836
10, 5, 3, 410, -762, 16838
10, 8, -3, 407, -760, 16828
5, 8, -3, 413, -764, 16827
7, 8, 0, 404, -762, 16843
8, 10, 3, 411, -765, 16860
6, 2, -1, 407, -778, 16863
9, 7, 1, 402, -784, 16866
5, 8, 2, 391, -781, 16830
12, 7, 1, 366, -773, 16816
9, 10, 0, 347, -760, 16800
7, 10, 6, 338, -734, 16780
7, 12, 7, 343, -734, 16778
7, 11, 0, 351, -719, 16763
5, 9, 2, 377, -729, 16750
11, 8, -2, 386, -712, 16744
10, 8, 1, 398, -711, 16722
14, 7, 5, 409, -682, 16713
7, 6, 2, 407, -684, 16697
5, 9, -1, 401, -680, 16703
6, 8, 2, 390, -703, 16713
7, 4, -1, 376, -724, 16725
7, 3, -2, 360, -744, 16725
12, 2, 0, 352, -766, 16725
10, 4, 6, 333, -777, 16727
5, 5, 4, 333, -787, 16728
8, 8, 3, 330, -785, 16745
10, 7, 2, 340, -772, 16756
9, 6, 2, 354, -763, 16779
9, 8, 7, 359, -736, 16814
11, 6, 3, 365, -727, 16827
9, 8, 2, 384, -715, 16826
8, 6, 0, 374, -701, 16801
7, 6, 3, 397, -689, 16771
8, 2, 0, 395, -684, 16745
11, 7, -2, 391, -670, 16757
6, 9, 6, 387, -673, 16762
12, 7, 2, 383, -683, 16807
10, 4, -2, 380, -694, 16823
13, 1, -3, 372, -717, 16842
10, 8, 0, 362, -740, 16819
8, 6, 3, 359, -764, 16798
7, 8, -1, 362, -756, 16767
13, 7, 3, 385, -743, 16750
10, 5, 5, 384, -708, 16740
8, 7, 0, 368, -687, 16737
11, 5, -1, 329, -681, 16744
10, 10, 1, 301, -682, 16752
8, 11, 2, 303, -695, 16757
8, 3, 0, 330, -696, 16746
11, 6, 2, 380, -706, 16713
9, 6, -1, 398, -717, 16696
7, 6, 0, 408, -729, 16680
11, 7, 1, 398, -750, 16678
11, 9, 0, 377, -754, 16703
11, 9, -2, 368, -756, 16718
11, 3, 3, 373, -740, 16742
10, 5, 5, 380, -710, 16766
10, 6, 7, 382, -687, 16777
10, 7, -1, 406, -676, 16801
8, 9, 6, 405, -679, 16819
7, 12, 8, 437, -689, 16838
5, 10, 3, 445, -706, 16845
8, 4, 6, 447, -703, 16858
10, 2, 4, 442, -697, 16853
15, 8, 2, 434, -694, 16860
9, 5, -4, 437, -679, 16859
3, 8, 0, 448, -680, 16847
7, 7, 4, 471, -673, 16844
6, 8, 1, 458, -684, 16841
6, 3, 2, 459, -696, 16835
12, 9, 2, 434, -708, 16853
7, 6, -9, 429, -720, 16847
3, 8, -5, 417, -721, 16852
6, 10, 0, 413, -729, 16836
10, 5, -1, 405, -735, 16804
6, 7, 2, 383, -752, 16777
7, 7, 4, 376, -759, 16763
10, 6, -3, 376, -772, 16755
8, 7, 3, 388, -766, 16768
10, 6, 3, 394, -764, 16776
13, 5, 6, 401, -749, 16763
13, 7, 3, 386, -728, 16760
11, 10, 8, 369, -707, 16745
12, 6, 4, 374, -691, 16748
6, 2, 3, 373, -680, 16751
9, 3, 3, 398, -671, 16761
12, 7, 0, 408, -683, 16782
10, 3, 3, 427, -686, 16817
7, 3, 7, 424, -702, 16836
11, 9, 2, 432, -723, 16863
8, 4, -4, 429, -725, 16860
6, 5, 2, 422, -722, 16854
9, 9, 1, 414, -715, 16851
10, 3, 0, 400, -702, 16833
8, 3, 2, 389, -704, 16815
7, 6, -2, 394, -699, 16779
5, 6, -5, 391, -693, 16755
7, 5, 2, 388, -681, 16745
5, 4, -1, 399, -674, 16765
12, 3, 2, 399, -677, 16782
8, 6, 1, 416, -694, 16798
7, 8, -2, 447, -712, 16792
8, -1, 0, 458, -730, 16774
8, 2, 5, 463, -743, 16753
9, 5, 1, 447, -735, 16738
8, 7, 3, 424, -734, 16729
11, 8, 6, 406, -716, 16737
10, 10, -3, 392, -711, 16735
7, 7, -4, 383, -688, 16759
8, 4, 1, 378, -689, 16786
7, 6, 3, 363, -679, 16803
9, 6, 6, 356, -696, 16838
10, 4, 2, 365, -709, 16846
9, 11, 1, 369, -726, 16829
9, 10, 1, 373, -710, 16803
6, 8, 0, 382, -689, 16759
10, 2, 3, 369, -661, 16735
9, 1, 2, 362, -635, 16726
10, 6, 3, 352, -640, 16749
9, 2, -4, 346, -650, 16782
7, 3, -1, 334, -667, 16829
12, 7, 2, 346, -680, 16860
8, 10, -4, 345, -679, 16888
12, 10, 1, 366, -679, 16866
9, 6, 1, 368, -674, 16864
8, 4, 4, 379, -674, 16823
7, 3, 3, 397, -681, 16813
9, 4, -2, 411, -682, 16808
9, 7, -3, 418, -683, 16795
8, 7, 3, 410, -692, 16787
7, 5, 3, 402, -697, 16784
9, 5, 2, 366, -708, 16783
10, 9, 7, 366, -713, 16789
8, 5, 5, 357, -718, 16802
8, 8, 3, 345, -709, 16805
8, 9, 3, 353, -705, 16782
10, 6, 3, 367, -699, 16771
13, 7, 1, 371, -708, 16771
9, 12, 5, 380, -730, 16771
7, 8, 1, 375, -760, 16790
6, 7, 5, 372, -794, 16811
8, 4, 1, 380, -798, 16802
7, 3, 0, 399, -808, 16815
6, 6, 1, 428, -783, 16793
8, 7, -1, 439, -771, 16786
12, 11, -4, 444, -741, 16761
10, 5, 1, 439, -714, 16740
8, 7, 3, 427, -707, 16744
12, 15, 4, 425, -698, 16739
11, 10, 3, 400, -708, 16769
10, 7, -1, 400, -721, 16787
9, 6, 1, 387, -719, 16806
8, 7, 5, 384, -723, 16824
5, 10, -1, 382, -718, 16817
11, 8, 5, 375, -704, 16817
9, 6, 2, 366, -703, 16810
5, 6, -3, 372, -690, 16791
10, 3, 1, 384, -692, 16780
12, 4, 1, 404, -695, 16748
13, 8, 2, 414, -694, 16743
7, 5, -2, 441, -703, 16733
10, 4, 0, 437, -709, 16762
9, 5, 0, 456, -719, 16779
9, 5, 1, 449, -730, 16817
10, 7, 2, 425, -735, 16834
12, 4, 4, 403, -747, 16846
12, 3, 2, 372, -750, 16845
11, 9, 2, 358, -759, 16826
9, 7, 1, 368, -763, 16788
11, 2, 0, 370, -768, 16751
12, 7, 0, 392, -761, 16712
10, 8, 4, 396, -747, 16712
8, 7, 4, 379, -723, 16724
12, 5, 4, 375, -703, 16768
13, 8, 1, 367, -688, 16801
8, 10, -1, 367, -683, 16824
8, 6, -4, 392, -685, 16816
13, 3, 0, 403, -697, 16819
12, 10, 2, 418, -705, 16790
10, 8, 5, 410, -716, 16787
10, 1, 5, 410, -720, 16771
5, 3, -2, 408, -721, 16770
6, 6, -1, 407, -717, 16784
8, 6, 7, 409, -721, 16793
9, 10, 8, 425, -733, 16821
12, 5, -3, 410, -745, 16813
7, 6, -1, 419, -755, 16811
8, 6, 2, 410, -758, 16782
7, 6, 2, 395, -735, 16750
6, 10, 1, 390, -719, 16707
12, 11, 4, 376, -694, 16685
12, 4, 3, 383, -695, 16684
6, 3, 1, 394, -695, 16694
6, 3, -1, 402, -720, 16747
8, 3, 1, 404, -718, 16756
7, 6, -1, 400, -741, 16803
10, 4, -2, 392, -735, 16822
6, 12, 4, 397, -738, 16849
8, 7, 5, 393, -744, 16854
13, 4, 3, 400, -727, 16850
8, 7, 3, 387, -727, 16831
11, 5, 5, 390, -718, 16812
10, 4, 3, 388, -714, 16803
7, 6, 3, 396, -706, 16786
3, 4, 4, 395, -703, 16799
7, 7, 3, 403, -705, 16790
14, 8, 0, 397, -719, 16783
12, 3, -1, 403, -738, 16782
6, 8, 3, 416, -744, 16758
8, 10, 1, 415, -754, 16765
9, 5, 1, 428, -746, 16761
11, 4, -3, 440, -743, 16781
11, 4, -5, 459, -727, 16786
8, 6, 3, 478, -711, 16793
13, 8, -1, 491, -686, 16786
10, 6, 4, 472, -668, 16758
7, 7, 1, 466, -650, 16749
9, 5, 0, 430, -643, 16729
9, 10, 5, 413, -633, 16730
10, 7, 4, 409, -641, 16746
7, 6, 2, 403, -644, 16756
7, 5, 2, 431, -677, 16777
9, 7, 2, 464, -695, 16792
8, 7, 1, 468, -729, 16796
9, 5, 0, 460, -748, 16801
15, 5, -2, 432, -746, 16788
11, 4, 3, 400, -746, 16785
13, 4, 4, 375, -721, 16777
9, 6, 2, 373, -718, 16782
7, 6, -5, 379, -703, 16788
9, 6, 1, 394, -698, 16807
9, 5, 0, 407, -689, 16823
11, 3, 2, 396, -679, 16825
8, 7, 2, 388, -667, 16822
6, 7, 2, 376, -670, 16815
10, 9, 2, 367, -674, 16798
9, 7, 1, 355, -683, 16793
2, 5, -2, 338, -684, 16783
6, 6, 4, 332, -695, 16772
10, 9, 1, 333, -691, 16771
8, 6, -2, 356, -705, 16773
11, 7, 1, 383, -713, 16780
7, 8, -2, 393, -710, 16791
6, 9, -2, 410, -716, 16786
9, 5, -1, 420, -705, 16766
11, 5, 2, 429, -710, 16756
9, 4, 4, 423, -703, 16735
11, 8, 3, 442, -701, 16729
12, 5, 2, 429, -701, 16736
6, 4, 2, 436, -688, 16738
11, 5, 0, 431, -689, 16759
15, 3, 4, 424, -689, 16776
11, 5, 4, 429, -686, 16793
6, 5, 5, 423, -703, 16796
6, 3, 3, 429, -714, 16800
8, 3, 0, 413, -729, 16771
9, 10, 4, 422, -752, 16773
12, 6, 1, 408, -760, 16765
9, 7, 2, 404, -762, 16766
8, 3, 1, 405, -756, 16796
11, 6, 5, 405, -741, 16805
7, 9, 1, 409, -729, 16809
2, 7, 0, 431, -729, 16798
6, 8, 1, 439, -725, 16792
9, 12, 2, 446, -715, 16775
3, 7, 0, 451, -719, 16792
7, 6, 1, 456, -712, 16795
9, 9, -1, 453, -729, 16810
9, 8, 0, 455, -744, 16812
11, 6, -2, 442, -756, 16804
11, 4, -2, 431, -759, 16790
15, 4, 2, 419, -739, 16763
11, 9, 3, 411, -722, 16753
7, 7, -3, 391, -710, 16740
7, 5, -2, 395, -696, 16764
5, 8, 2, 383, -710, 16778
7, 7, 3, 385, -709, 16793
12, 6, 0, 371, -710, 16783
10, 8, -1, 348, -705, 16776
12, 5, 1, 308, -701, 16754
8, 9, 3, 289, -710, 16754
7, 6, 2, 287, -718, 16757
9, 7, 3, 299, -722, 16771
6, 7, 4, 328, -732, 16773
9, 4, 3, 343, -725, 16760
8, 4, 3, 359, -715, 16742
10, 4, 4, 373, -707, 16708
9, 5, 2, 382, -684, 16708
7, 8, 0, 404, -682, 16719
8, 4, -3, 424, -681, 16749
13, 4, -3, 437, -712, 16771
8, 7, -1, 451, -720, 16778
11, 9, 3, 451, -728, 16787
5, 6, 1, 452, -710, 16791
5, 5, 1, 461, -688, 16805
8, 7, 2, 453, -666, 16823
11, 6, -5, 438, -651, 16824
8, 5, 2, 404, -666, 16830
8, 5, 3, 367, -670, 16823
9, 6, 8, 340, -694, 16819
8, 4, 5, 344, -710, 16825
11, 7, 1, 360, -715, 16823
3, 6, -1, 390, -724, 16817
6, 11, -3, 423, -728, 16794
7, 8, -4, 433, -715, 16762
8, 4, 0, 455, -709, 16728
11, 6, -1, 450, -694, 16703
11, 12, 0, 463, -691, 16693
9, 9, 4, 433, -690, 16693
11, 3, 3, 411, -712, 16695
11, 10, -2, 372, -714, 16717
7, 10, -2, 343, -718, 16722
6, 11, 0, 327, -720, 16743
13, 8, -1, 348, -714, 16741
11, 2, -1, 361, -712, 16747
11, 0, 2, 393, -713, 16764
11, 8, 5, 404, -713, 16778
12, 7, 1, 412, -727, 16804
10, 9, -1, 391, -731, 16817
7, 6, 4, 376, -748, 16809
9, 5, 2, 365, -733, 16780
4, 11, 1, 348, -714, 16750
8, 8, 1, 346, -695, 16736
13, 0, 0, 353, -686, 16744
8, 5, 3, 354, -695, 16772
7, 7, 0, 360, -714, 16798
8, 4, 0, 373, -741, 16827
12, 6, -2, 374, -756, 16850
9, 9, -1, 381, -772, 16869
5, 7, 3, 382, -779, 16890
4, 6, 1, 390, -774, 16870
9, 6, 1, 366, -764, 16852
13, 5, -2, 377, -741, 16822
7, 4, -1, 360, -727, 16789
2, 9, 0, 366, -702, 16779
5, 7, -1, 368, -695, 16753
7, 6, 8, 362, -696, 16749
6, 4, 6, 360, -680, 16743
11, 9, 0, 352, -693, 16743
6, 6, -1, 358, -691, 16737
6, 7, 2, 364, -690, 16735
14, 8, 0, 351, -705, 16721
10, 6, 2, 353, -709, 16718
8, 6, 1, 328, -714, 16730
10, 6, -1, 340, -727, 16722
10, 5, 0, 365, -709, 16750
9, 5, 2, 380, -703, 16759
10, 9, 0, 402, -677, 16787
14, 4, 4, 403, -668, 16800
13, 13, -2, 403, -660, 16816
8, 7, 3, 404, -651, 16793
7, 4, 3, 406, -661, 16785
4, 10, -1, 407, -662, 16762
8, 7, -3, 397, -674, 16755
6, 5, 0, 382, -699, 16759
8, 2, 4, 371, -722, 16763
7, 2, 4, 363, -745, 16783
9, 8, 1, 361, -774, 16793
12, 8, -3, 383, -773, 16826
13, 6, 2, 394, -782, 16856
12, 5, -1, 413, -763, 16866
11, 6, 2, 412, -740, 16893
4, 7, 1, 391, -728, 16879
6, 8, 5, 388, -708, 16882
11, 8, 1, 367, -709, 16851
9, 6, 3, 377, -712, 16818
8, 9, 4, 390, -717, 16778
9, 10, 4, 393, -706, 16735
8, 6, 2, 392, -689, 16720
11, 3, 3, 387, -681, 16706
15, 10, 6, 379, -673, 16714
11, 10, -1, 383, -702, 16738
9, 6, 2, 393, -729, 16747
8, 5, 3, 393, -748, 16781
12, 8, 2, 391, -765, 16770
10, 7, -2, 384, -747, 16771
5, 4, 3, 370, -741, 16744
2, 6, 0, 364, -714, 16731
8, 7, -1, 345, -705, 16725
8, 8, 1, 345, -703, 16729
8, 4, 4, 350, -715, 16757
14, 6, 2, 365, -725, 16791
12, 6, 2, 405, -732, 16808
8, 5, 3, 424, -737, 16818
7, 8, 4, 443, -742, 16799
8, 9, -2, 429, -755, 16775
13, 9, 0, 418, -761, 16769
6, 5, 5, 401, -766, 16762
3, 4, 3, 386, -772, 16768
4, 0, 0, 382, -758, 16764
12, 6, 6, 385, -743, 16759
10, 6, 6, 403, -730, 16765
7, 9, 5, 423, -723, 16772
7, 9, 5, 456, -730, 16784
8, 6, 3, 458, -741, 16788
9, 7, 0, 450, -745, 16783
9, 9, -2, 436, -748, 16774
6, 4, -5, 412, -746, 16753
9, 3, -3, 413, -747, 16755
8, 11, -1, 401, -747, 16753
7, 10, 5, 380, -737, 16755
9, 5, 2, 377, -729, 16755
12, 4, -3, 360, -712, 16745
9, 5, 0, 370, -684, 16730
4, 4, 6, 374, -667, 16715
11, 5, 4, 383, -648, 16718
11, 6, 2, 383, -661, 16717
12, 4, 4, 390, -685, 16724
7, 4, -1, 407, -705, 16725
5, 6, -2, 424, -740, 16735
7, 5, 2, 431, -745, 16745
10, 2, 7, 439, -762, 16762
7, 3, 7, 420, -759, 16794
8, 2, 1, 420, -761, 16804
9, 9, 4, 422, -766, 16805
12, 8, 7, 416, -752, 16797
8, 7, 4, 424, -747, 16800
9, 3, 4, 418, -725, 16790
11, 3, 2, 404, -714, 16805
10, 5, -1, 408, -714, 16803
7, 8, -3, 381, -712, 16794
7, 9, 0, 375, -709, 16815
9, 4, 1, 334, -717, 16811
8, 3, 0, 350, -711, 16814
9, 6, 2, 342, -732, 16813
7, 9, 0, 382, -744, 16802
8, 10, 2, 408, -747, 16813
9, 8, 0, 432, -739, 16812
6, 5, 0, 430, -720, 16824
8, 6, -1, 423, -696, 16790
11, 8, 2, 385, -685, 16765
8, 13, 5, 379, -679, 16730
10, 2, 5, 357, -676, 16711
14, 5, 0, 359, -676, 16704
13, 10, 4, 349, -663, 16714
14, 8, 2, 352, -674, 16734
10, 8, 8, 350, -686, 16751
11, 5, 4, 364, -714, 16764
8, 6, 3, 369, -747, 16790
7, 8, 0, 375, -771, 16785
6, 3, 1, 375, -769, 16801
9, 8, 2, 368, -766, 16791
11, 8, 3, 388, -760, 16798
11, 11, 3, 380, -739, 16812
10, 6, 4, 397, -735, 16826
10, 7, 3, 389, -716, 16839
12, 6, 1, 397, -708, 16840
11, 5, 6, 403, -689, 16812
14, 1, 3, 426, -685, 16785
9, 8, 0, 435, -688, 16743
11, 6, 2, 433, -682, 16723
11, 5, -1, 417, -692, 16718
10, 7, 0, 392, -689, 16721
8, 5, -2, 368, -686, 16738
8, 12, -1, 361, -681, 16739
11, 8, 5, 349, -676, 16742
10, 7, 7, 338, -685, 16759
7, 8, 2, 345, -697, 16783
8, 8, 8, 339, -703, 16793
7, 6, 0, 373, -716, 16814
9, 2, 1, 372, -701, 16811
13, 5, -2, 396, -688, 16811
10, 9, -4, 376, -674, 16809
5, 7, -3, 358, -661, 16795
5, 7, 0, 339, -655, 16800
6, 8, 3, 335, -654, 16798
10, 6, 1, 349, -663, 16796
7, 5, -1, 377, -682, 16784
6, 6, 2, 411, -711, 16765
8, 7, 5, 424, -739, 16753
11, 1, 4, 450, -743, 16729
9, 6, -2, 452, -737, 16726
12, 10, 0, 455, -710, 16712
12, 10, -1, 444, -684, 16685
7, 5, 1, 424, -670, 16676
11, 7, 1, 407, -673, 16673
7, 5, 2, 390, -686, 16673
8, 5, -1, 377, -709, 16692
9, 3, 0, 377, -729, 16687
10, 6, -1, 376, -722, 16697
11, 9, -2, 386, -724, 16673
11, 12, 1, 392, -713, 16673
9, 7, 2, 388, -714, 16681
11, 9, 2, 378, -737, 16689
14, 13, 2, 372, -743, 16723
9, 9, 1, 388, -751, 16752
9, 5, -1, 389, -750, 16770
4, 9, 1, 419, -734, 16768
10, 10, 1, 411, -720, 16769
14, 7, 0, 410, -704, 16754
9, 8, 4, 399, -705, 16754
12, 6, 3, 376, -697, 16761
12, 7, 2, 365, -707, 16757
8, 5, 1, 347, -712, 16761
13, 6, -1, 353, -705, 16769
11, 5, 6, 357, -708, 16767
6, 6, 5, 359, -709, 16771
10, 11, 5, 370, -702, 16771
13, 6, 2, 388, -705, 16760
11, 5, 0, 389, -711, 16756
6, 8, 1, 402, -722, 16762
14, 7, 0, 384, -745, 16761
7, 1, 3, 373, -759, 16776
5, 2, 6, 365, -749, 16778
8, 3, -2, 382, -740, 16769
4, 6, 2, 391, -708, 16760
10, 7, 3, 408, -697, 16727
6, 7, 0, 402, -686, 16721
10, 9, -1, 392, -687, 16705
12, 5, 0, 391, -677, 16712
6, 5, 4, 389, -674, 16741
5, 7, 1, 411, -667, 16747
4, 3, 5, 427, -658, 16789
5, 3, 3, 456, -677, 16795
5, 9, 2, 444, -683, 16817
9, 13, -1, 449, -707, 16813
9, 7, 2, 430, -726, 16823
8, 8, -1, 424, -738, 16804
10, 7, -1, 412, -741, 16798
12, 3, 0, 421, -740, 16786
10, 6, 0, 413, -742, 16777
10, 6, 0, 415, -736, 16773
8, 8, 1, 408, -748, 16774
9, 6, 4, 393, -742, 16790
12, 2, 4, 394, -743, 16808
9, 9, 4, 398, -736, 16817
10, 7, 8, 416, -737, 16832
12, 6, 11, 433, -731, 16819
6, 7, -1, 439, -720, 16805
10, 14, 3, 417, -709, 16784
12, 14, 0, 394, -704, 16772
8, 10, 1, 369, -692, 16754
9, 5, 4, 344, -700, 16764
10, 4, 1, 350, -703, 16753
11, 7, 2, 359, -728, 16769
7, 5, 1, 362, -731, 16772
6, 6, 6, 391, -750, 16798
8, 10, 1, 376, -746, 16800
12, 9, 1, 398, -741, 16811
8, 7, 1, 395, -740, 16795
8, 3, 0, 413, -734, 16776
6, 7, 0, 429, -713, 16753
5, 5, -2, 426, -705, 16730
5, 5, -1, 421, -706, 16713
12, 2, 0, 413, -717, 16720
11, 4, -4, 400, -741, 16742
7, 5, 0, 397, -752, 16772
8, 6, -1, 389, -744, 16795
13, 7, -1, 386, -724, 16800
12, 5, 2, 377, -707, 16793
9, 5, 0, 392, -687, 16777
8, 7, 4, 393, -679, 16743
5, 6, 0, 422, -668, 16724
13, 8, 2, 431, -659, 16711
9, 6, 0, 447, -649, 16730
11, 5, 3, 442, -640, 16753
12, 5, 2, 418, -642, 16790
14, 11, 2, 406, -650, 16800
8, 7, 5, 388, -676, 16797
13, 8, 1, 390, -696, 16788
10, 14, -1, 393, -725, 16798
9, 12, 1, 381, -744, 16812
7, 6, -3, 377, -745, 16838
8, 11, 1, 372, -735, 16863
8, 6, 1, 377, -723, 16859
5, 5, 3, 403, -694, 16835
11, 8, -2, 414, -686, 16801
11, 2, -5, 430, -676, 16755
9, 3, -3, 421, -673, 16728
7, 8, -3, 401, -676, 16727
11, 11, 3, 388, -686, 16746
11, 9, 3, 379, -696, 16775
9, 6, 1, 374, -720, 16777
9, 7, 3, 386, -739, 16783
13, 7, 3, 386, -761, 16768
9, 8, 0, 398, -775, 16736
7, 5, 1, 393, -784, 16717
8, 5, -2, 386, -780, 16687
10, 5, -1, 378, -769, 16677
9, 11, 2, 360, -750, 16682
8, 11, 0, 361, -735, 16684
10, 6, 2, 379, -709, 16720
6, 4, 3, 392, -692, 16737
9, 6, -3, 415, -674, 16759
14, 8, -1, 424, -671, 16779
11, 6, -1, 417, -673, 16777
5, 0, 0, 402, -687, 16782
8, 5, -3, 375, -681, 16789
10, 7, -5, 355, -685, 16808
6, 2, -2, 342, -673, 16835
7, 4, 1, 352, -674, 16847
9, 7, 4, 362, -670, 16864
12, 9, 3, 362, -680, 16863
12, 9, -5, 353, -691, 16847
11, 8, -1, 365, -710, 16838
4, 6, 0, 362, -722, 16816
3, -1, -2, 397, -720, 16820
8, 7, -1, 395, -716, 16806
10, 9, 1, 390, -703, 16822
10, 8, -1, 378, -701, 16811
10, 9, 6, 356, -703, 16805
9, 5, 6, 326, -721, 16789
6, 2, 4, 294, -736, 16773
6, 7, -3, 281, -756, 16747
10, 11, -5, 290, -766, 16737
8, 7, -3, 342, -766, 16718
13, 7, -3, 366, -761, 16712
10, 6, -5, 402, -756, 16705
10, 5, 4, 384, -738, 16718
12, 7, 7, 383, -736, 16719
9, 5, 1, 362, -708, 16742
9, 2, 1, 353, -707, 16755
7, 0, 2, 343, -688, 16756
10, 3, 1, 331, -676, 16765
7, 3, 0, 342, -682, 16779
10, 1, 2, 352, -681, 16807
9, 1, 1, 369, -727, 16825
11, 7, 3, 403, -741, 16831
9, 6, 0, 412, -771, 16818
11, 10, 1, 422, -770, 16788
13, 4, 4, 427, -766, 16775
9, 5, 0, 405, -752, 16750
5, 6, -2, 415, -729, 16743
15, 8, -3, 412, -712, 16742
13, 7, 5, 417, -686, 16749
6, 4, 1, 404, -688, 16777
8, 4, -4, 374, -695, 16789
9, 8, 3, 346, -716, 16803
8, 4, 1, 310, -727, 16799
9, 3, -1, 318, -717, 16802
4, 8, -1, 315, -707, 16790
8, 8, -2, 341, -684, 16783
7, 7, 0, 364, -687, 16781
6, 6, 2, 368, -686, 16763
9, 4, -2, 370, -691, 16757
11, 5, 0, 359, -691, 16753
10, 7, 1, 363, -690, 16741
7, 11, 1, 368, -702, 16740
10, 8, 5, 395, -705, 16728
11, 4, 3, 414, -721, 16713
12, 5, -1, 437, -721, 16696
10, 5, 0, 446, -730, 16691
8, 9, 1, 456, -748, 16693
7, 7, 0, 431, -755, 16723
9, 9, 0, 407, -768, 16746
9, 8, 2, 375, -749, 16780
6, 5, -1, 383, -743, 16820
4, 5, -4, 399, -734, 16842
7, 6, 0, 438, -720, 16863
10, 7, 3, 461, -723, 16857
10, 4, 2, 455, -707, 16825
4, 3, -1, 436, -702, 16791
7, 3, 1, 415, -693, 16783
6, 2, 3, 387, -685, 16806
7, 10, -1, 388, -682, 16832
10, 9, 3, 384, -671, 16862
10, 6, 1, 383, -691, 16858
10, 5, -1, 394, -708, 16831
8, 9, 0, 408, -738, 16814
8, 2, -1, 418, -748, 16807
13, 2, -1, 440, -750, 16804
11, 0, 3, 435, -733, 16809
7, 11, 5, 432, -721, 16810
8, 9, -2, 426, -718, 16809
8, 7, -1, 445, -699, 16798
10, 3, 0, 448, -689, 16784
12, 1, 9, 460, -669, 16766
9, 7, 1, 440, -662, 16746
7, 5, -3, 415, -663, 16730
3, 5, 2, 387, -675, 16723
8, 6, 3, 376, -693, 16719
8, 7, 2, 390, -717, 16706
9, 5, 4, 393, -751, 16710
8, 7, -1, 416, -766, 16702
10, 9, -4, 406, -762, 16728
12, 6, 1, 407, -747, 16734
9, 5, 0, 409, -723, 16754
11, 5, 1, 402, -721, 16750
8, 7, 4, 419, -718, 16737
7, 7, 6, 420, -720, 16728
6, 6, 4, 421, -719, 16716
9, 6, 0, 424, -705, 16740
11, 4, 1, 419, -694, 16746
10, 1, -1, 407, -687, 16780
10, 7, 3, 404, -667, 16806
12, 7, 1, 411, -668, 16813
6, 4, -2, 427, -653, 16820
11, 10, -2, 448, -654, 16820
13, 9, 3, 475, -652, 16789
7, 8, 3, 486, -663, 16776
8, 9, -1, 496, -671, 16744
9, 5, 4, 486, -691, 16733
13, 8, 3, 469, -703, 16726
11, 10, 0, 434, -718, 16721
13, 10, 3, 402, -748, 16721
14, 7, 3, 372, -757, 16726
8, 8, -2, 362, -755, 16743
8, 7, -2, 353, -755, 16761
8, 2, 2, 374, -733, 16785
8, 3, 3, 391, -723, 16800
8, 5, -3, 424, -718, 16821
8, 8, 2, 443, -708, 16830
9, 6, 3, 469, -708, 16829
11, 8, 0, 476, -714, 16813
7, 3, -3, 485, -719, 16814
10, 4, 0, 482, -733, 16801
13, 6, 5, 470, -725, 16799
13, 6, 4, 451, -720, 16798
10, 6, 3, 430, -706, 16771
4, 6, -2, 419, -689, 16768
6, 5, -3, 402, -685, 16757
10, 12, 1, 400, -674, 16757
11, 7, 3, 387, -670, 16754
12, 4, 0, 390, -669, 16754
9, 7, -2, 394, -662, 16766
7, 9, -1, 405, -676, 16776
11, 9, 5, 427, -697, 16782
10, 10, 3, 445, -727, 16800
11, 8, 0, 470, -745, 16789
7, 7, 1, 486, -753, 16801
9, 7, 0, 492, -738, 16808
11, 5, 3, 476, -696, 16817
12, 4, 4, 457, -656, 16823
8, 3, -5, 428, -623, 16804
13, 6, 1, 423, -613, 16780
7, 7, -2, 423, -623, 16761
5, 7, 0, 432, -654, 16745
14, 5, 3, 428, -669, 16718
0, 6, 5, 415, -695, 16707
7, 6, 0, 377, -715, 16689
10, 11, 0, 342, -732, 16702
8, 7, 0, 316, -751, 16714
6, 2, 3, 297, -743, 16752
6, 5, 2, 303, -734, 16756
9, 5, 1, 321, -720, 16779
7, -1, 0, 350, -709, 16784
5, 0, -2, 371, -715, 16781
7, 9, 5, 395, -724, 16774
6, 11, 7, 402, -741, 16743
11, 6, -5, 418, -748, 16726
11, 7, -1, 431, -754, 16693
9, 9, -5, 430, -756, 16680
6, 5, -4, 411, -740, 16675
8, 10, -4, 383, -735, 16691
8, 7, 0, 350, -713, 16695
8, 8, -1, 353, -698, 16739
10, 7, 1, 359, -686, 16771
7, 8, 5, 372, -673, 16817
8, 7, 4, 377, -674, 16857
10, 10, 2, 373, -677, 16856
10, 5, 0, 369, -693, 16843
7, 4, 8, 360, -703, 16806
12, 9, 6, 348, -722, 16780
8, 5, 5, 339, -739, 16774
6, 3, -2, 329, -749, 16757
8, 6, 4, 339, -762, 16746
1, 5, 3, 355, -757, 16741
12, 5, 1, 376, -756, 16742
10, 9, -1, 380, -757, 16755
10, 8, -2, 389, -768, 16770
12, 6, 2, 389, -782, 16781
9, 5, 2, 405, -789, 16771
7, 5, 2, 431, -784, 16761
7, 1, 0, 449, -762, 16744
8, 6, 0, 464, -742, 16729
13, 7, 5, 448, -720, 16719
8, 7, 5, 418, -726, 16713
8, 10, 2, 386, -731, 16717
11, 2, 3, 355, -751, 16724
5, 4, 8, 355, -762, 16747
9, 9, 4, 357, -764, 16758
8, 6, 1, 375, -748, 16775
10, 2, 1, 394, -738, 16782
13, 12, 1, 392, -722, 16781
12, 11, 3, 405, -710, 16790
9, 7, 1, 396, -717, 16806
9, 9, 1, 389, -719, 16800
13, 6, 0, 374, -714, 16799
13, 5, 1, 359, -700, 16800
13, 10, 3, 368, -675, 16779
10, 8, 6, 370, -652, 16794
10, 9, 4, 398, -642, 16796
6, 11, 0, 413, -647, 16799
7, 6, -2, 433, -664, 16800
9, 5, 1, 439, -686, 16796
11, 7, -1, 447, -712, 16776
8, 2, 0, 437, -725, 16761
11, 6, 0, 429, -733, 16750
8, 8, 2, 417, -723, 16761
8, 3, 4, 413, -709, 16768
11, 4, 2, 427, -705, 16794
9, 9, 2, 426, -699, 16806
9, 6, 1, 446, -716, 16815
11, 7, 0, 445, -721, 16825
14, 7, 1, 426, -732, 16816
12, 6, 3, 416, -723, 16807
5, 10, 3, 381, -710, 16780
8, 2, 0, 369, -688, 16757
7, 3, -3, 347, -676, 16756
6, 2, -2, 347, -674, 16734
4, 7, 1, 351, -688, 16750
9, 6, 2, 354, -688, 16745
9, 3, 2, 378, -692, 16741
12, 6, -1, 388, -693, 16752
10, 7, 6, 418, -699, 16750
11, 9, 5, 439, -714, 16757
11, 9, -6, 452, -719, 16752
10, 3, -4, 452, -710, 16748
10, 5, 0, 448, -689, 16760
8, 5, -3, 435, -668, 16750
15, 7, 1, 433, -663, 16778
7, 6, 1, 435, -667, 16773
7, 8, 3, 415, -686, 16783
8, 4, 3, 407, -697, 16806
8, 4, 5, 399, -719, 16817
12, 8, 3, 401, -722, 16820
8, 10, -1, 419, -723, 16818
6, 5, 2, 420, -720, 16786
12, 5, 3, 439, -702, 16786
15, 10, -1, 419, -694, 16763
4, 9, -1, 414, -683, 16768
8, 7, -1, 412, -669, 16754
8, 11, 1, 405, -644, 16749
9, 5, -1, 421, -629, 16753
6, 7, 0, 428, -629, 16749
11, 10, 6, 442, -653, 16744
10, 8, 4, 437, -684, 16745
9, 5, 4, 431, -717, 16733
7, 4, -2, 420, -718, 16725
10, 7, -2, 417, -721, 16725
14, 8, 0, 402, -714, 16721
7, 11, -4, 395, -708, 16719
9, 8, -1, 381, -724, 16724
8, 9, 3, 368, -723, 16730
10, 10, 3, 369, -744, 16732
8, 7, 1, 381, -749, 16729
7, 7, 3, 398, -745, 16728
9, 5, -3, 411, -740, 16731
14, 9, 1, 436, -717, 16749
9, 1, 3, 438, -701, 16771
12, 6, 1, 451, -685, 16783
13, 8, -2, 447, -680, 16780
10, 6, 2, 435, -666, 16771
8, 4, -1, 425, -656, 16741
9, 4, 0, 411, -654, 16734
9, 4, -5, 411, -669, 16728
12, 4, -5, 414, -699, 16733
14, 9, 4, 434, -742, 16758
12, 7, 2, 440, -760, 16767
10, 1, 2, 418, -773, 16792
7, 3, 4, 418, -765, 16790
10, 7, -2, 411, -743, 16791
11, 8, 1, 417, -718, 16778
11, 4, 2, 447, -694, 16763
10, -1, -2, 442, -677, 16741
8, 2, -1, 431, -682, 16738
10, 3, -3, 411, -698, 16737
12, 10, 1, 398, -730, 16747
10, 6, 3, 388, -752, 16778
11, 5, 6, 393, -778, 16811
1, 2, -6, 399, -781, 16838
9, 5, -1, 397, -780, 16857
17, 6, 5, 403, -765, 16853
9, 5, 0, 387, -750, 16843
9, 7, 2, 374, -732, 16824
6, 9, 5, 368, -716, 16810
9, 6, 2, 363, -711, 16786
10, 5, -1, 377, -711, 16789
6, 7, 0, 384, -718, 16773
8, 3, 1, 392, -714, 16783
9, 4, 1, 394, -716, 16791
8, 6, -1, 395, -711, 16776
10, 3, 0, 409, -707, 16782
7, 3, 1, 412, -710, 16766
9, 2, 2, 418, -710, 16755
11, 8, 3, 423, -717, 16751
10, 9, 3, 411, -715, 16739
2, 7, 4, 406, -727, 16749
3, 7, 2, 401, -722, 16760
10, 7, 2, 390, -712, 16764
7, 4, 4, 380, -702, 16785
11, 4, 3, 374, -685, 16781
11, 4, 1, 379, -672, 16810
10, 4, -1, 377, -670, 16838
9, 6, 2, 380, -675, 16858
10, 4, 5, 364, -694, 16881
6, 7, 1, 365, -721, 16870
2, 8, -2, 361, -748, 16850
3, 8, 4, 383, -757, 16838
7, 10, 2, 395, -752, 16825
6, 7, -2, 403, -732, 16818
5, 7, 1, 393, -714, 16816
8, 6, 5, 394, -707, 16798
10, 5, 4, 400, -710, 16779
7, 4, 3, 424, -716, 16762
10, 7, 5, 440, -713, 16746
15, 9, 4, 461, -715, 16731
7, 11, 3, 464, -707, 16716
5, 9, 6, 457, -701, 16710
7, 4, 5, 457, -690, 16706
11, 5, 2, 448, -691, 16723
10, 5, 4, 427, -696, 16739
8, 5, 0, 394, -722, 16748
9, 9, -1, 361, -740, 16765
10, 7, -4, 324, -760, 16776
14, 5, 9, 296, -752, 16814
6, 7, 5, 314, -737, 16848
8, 6, 3, 330, -722, 16860
12, 3, 3, 360, -703, 16850
6, 7, 5, 393, -707, 16833
9, 11, 3, 411, -705, 16801
14, 11, 1, 424, -714, 16808
9, 8, 0, 431, -711, 16804
7, 2, 1, 448, -721, 16798
7, 6, 4, 458, -730, 16783
6, 7, 4, 457, -750, 16758
11, 9, 2, 458, -770, 16750
14, 4, 1, 445, -771, 16729
13, 8, -5, 439, -761, 16733
12, 6, -4, 439, -729, 16735
12, 5, 2, 439, -703, 16745
8, 6, 3, 438, -683, 16761
4, 6, -1, 427, -681, 16777
6, 6, 6, 411, -695, 16782
6, 5, 1, 403, -702, 16787
7, 4, 3, 387, -715, 16773
9, 7, 7, 398, -719, 16788
6, 11, 1, 399, -719, 16769
2, 8, -1, 401, -713, 16783
10, 7, 5, 395, -703, 16757
13, 4, 4, 390, -677, 16750
10, 4, 0, 386, -652, 16735
18, 8, 4, 396, -640, 16741
15, 5, 5, 407, -632, 16770
12, 4, 1, 418, -651, 16788
7, 5, 4, 425, -662, 16798
13, 3, -2, 412, -677, 16800
5, 6, 1, 410, -688, 16779
6, 7, 1, 393, -703, 16763
7, 9, 5, 416, -708, 16755
14, 5, 3, 425, -718, 16753
8, 7, -1, 449, -727, 16751
5, 8, 0, 443, -736, 16759
5, 8, -2, 427, -755, 16763
6, 6, 0, 403, -764, 16750
8, 7, 0, 388, -773, 16759
7, 5, 3, 396, -754, 16743
6, 7, 3, 397, -731, 16730
7, 10, 2, 426, -696, 16744
10, 7, 1, 425, -660, 16747
11, 8, 1, 436, -656, 16786
7, 9, -4, 426, -661, 16808
8, 4, 0, 432, -686, 16819
4, 4, 1, 428, -728, 16815
10, 9, 1, 426, -745, 16792
16, 12, 0, 407, -774, 16765
11, 7, 1, 381, -763, 16755
9, 6, 4, 354, -747, 16754
12, 7, -2, 351, -728, 16767
12, 10, -1, 368, -723, 16787
7, 4, 1, 405, -717, 16776
5, 3, -2, 447, -737, 16761
11, 8, 0, 460, -714, 16740
10, 4, 1, 478, -710, 16717
13, 7, -1, 462, -688, 16709
14, 8, -2, 440, -685, 16711
14, 10, 0, 420, -696, 16742
10, 9, -1, 394, -707, 16766
12, 9, -2, 379, -726, 16817
11, 10, 1, 387, -731, 16850
11, 7, 3, 400, -742, 16857
8, 3, 6, 424, -742, 16866
10, 7, 2, 463, -732, 16853
5, 8, -1, 466, -715, 16836
7, 9, 1, 475, -691, 16820
14, 7, 3, 449, -689, 16817
13, 5, 4, 429, -683, 16830
13, 8, 8, 397, -705, 16829
12, 7, 0, 379, -717, 16829
7, 7, -6, 368, -722, 16813
11, 4, -2, 362, -728, 16778
13, 6, 1, 369, -715, 16748
5, 3, 0, 397, -694, 16709
12, -3, 0, 425, -680, 16696
11, 4, 1, 464, -676, 16706
13, 5, 2, 499, -671, 16743
17, 2, 1, 510, -680, 16781
14, 3, -2, 496, -673, 16822
13, 2, -3, 466, -654, 16818
12, 5, 0, 425, -642, 16814
8, 10, 3, 388, -632, 16780
10, 8, 3, 379, -636, 16746
7, 4, 0, 383, -661, 16713
9, 6, 4, 391, -680, 16698
11, 5, 1, 411, -699, 16703
12, 8, 2, 403, -695, 16716
14, 10, 0, 398, -694, 16733
8, 4, 0, 374, -679, 16741
7, 2, 1, 368, -671, 16754
4, 7, 1, 371, -669, 16770
5, 4, 1, 382, -657, 16796
12, 5, -1, 394, -666, 16810
9, 5, -2, 400, -682, 16820
7, 7, -1, 401, -711, 16806
10, 5, 2, 386, -742, 16799
8, 5, 5, 388, -762, 16799
3, 4, 3, 377, -773, 16792
10, 7, 1, 385, -780, 16803
12, 9, 2, 409, -801, 16803
12, 6, 4, 422, -816, 16805
7, 8, 0, 434, -809, 16808
10, 6, 2, 433, -789, 16800
12, 6, 5, 414, -740, 16786
12, 5, 0, 406, -700, 16787
16, 5, -6, 396, -673, 16786
12, 6, -5, 386, -660, 16795
11, 8, 0, 370, -667, 16805
11, 8, 4, 354, -683, 16797
5, 9, -1, 353, -692, 16806
9, 10, -2, 360, -700, 16805
8, 11, -1, 373, -706, 16829
2, 7, -1, 374, -711, 16845
5, 7, 2, 370, -733, 16853
10, 5, -5, 351, -752, 16834
7, 5, 1, 352, -758, 16799
4, 5, 5, 353, -750, 16741
6, 6, 4, 361, -717, 16710
9, 9, -5, 364, -702, 16692
7, 3, 2, 385, -669, 16709
12, 4, 2, 384, -666, 16752
6, 2, 2, 422, -678, 16789
7, 5, 4, 426, -678, 16804
9, -2, 4, 447, -700, 16809
7, 3, 0, 437, -701, 16785
11, 6, 2, 435, -696, 16770
6, 3, 3, 409, -708, 16767
7, 10, 1, 397, -702, 16760
6, 2, -1, 394, -717, 16753
7, 2, 3, 391, -729, 16743
10, 7, 1, 402, -749, 16735
6, 9, -2, 412, -774, 16744
7, 5, 2, 402, -790, 16762
9, 6, 7, 395, -790, 16778
9, 6, 3, 376, -774, 16790
11, 6, 5, 356, -753, 16806
8, 8, 0, 341, -739, 16802
12, 6, -2, 347, -725, 16804
8, 7, 2, 349, -713, 16779
10, 5, 3, 378, -691, 16752
13, 6, 2, 383, -668, 16765
7, 5, 0, 405, -663, 16776
3, 6, 1, 409, -666, 16808
7, 6, 1, 403, -697, 16822
13, 4, -1, 402, -727, 16811
6, 5, 3, 383, -769, 16783
8, 5, 5, 371, -791, 16765
7, 10, 5, 377, -808, 16750
13, 6, 7, 384, -793, 16738
10, 6, 1, 391, -777, 16737
6, 8, 4, 390, -755, 16728
5, 5, 1, 381, -740, 16720
8, 7, -2, 383, -731, 16718
7, 10, 4, 380, -731, 16720
12, 6, 5, 385, -721, 16728
13, 4, 5, 420, -717, 16744
5, 5, 5, 425, -698, 16761
10, 10, -2, 450, -692, 16804
6, 7, 1, 450, -677, 16829
8, 6, 2, 438, -687, 16857
9, 9, 1, 406, -691, 16873
7, 8, -3, 381, -705, 16862
8, 1, 3, 365, -701, 16847
10, 6, 3, 355, -691, 16832
8, 9, 0, 359, -679, 16812
8, 9, -1, 360, -669, 16793
10, 12, -3, 362, -680, 16784
12, 12, 1, 371, -698, 16776
10, 10, -1, 368, -721, 16788
11, 6, -5, 380, -735, 16796
9, 8, -5, 382, -745, 16809
6, 7, -2, 388, -755, 16802
9, 8, 2, 376, -756, 16780
8, 4, 0, 368, -753, 16750
12, 7, 0, 352, -732, 16736
5, 7, 4, 335, -701, 16724
5, 7, 2, 337, -679, 16738
11, 6, 4, 353, -670, 16754
11, 7, 0, 371, -679, 16751
15, 8, 0, 400, -690, 16763
12, 2, 0, 434, -698, 16741
12, 6, 2, 439, -693, 16734
8, 9, 2, 452, -686, 16724
7, 3, -1, 420, -676, 16731
12, 8, 0, 406, -674, 16742
20, 9, 2, 388, -681, 16779
13, 7, 2, 379, -692, 16794
11, 6, 1, 396, -711, 16812
7, 6, 3, 398, -707, 16795
8, 8, -1, 409, -708, 16795
13, 6, 2, 404, -685, 16770
13, 3, 2, 376, -680, 16767
6, 8, 0, 349, -684, 16771
7, 6, 1, 338, -690, 16758
7, 8, 3, 332, -704, 16756
6, 10, 1, 358, -707, 16754
9, 6, 1, 386, -692, 16764
8, 4, -3, 401, -681, 16805
7, 6, -4, 415, -669, 16833
11, 9, 3, 404, -660, 16861
5, 7, 4, 379, -666, 16847
9, 3, 3, 359, -673, 16832
10, 3, 3, 335, -670, 16802
8, 3, 1, 352, -677, 16791
9, 9, 0, 372, -663, 16789
12, 11, 2, 413, -662, 16787
12, 10, 3, 439, -661, 16795
12, 7, 2, 432, -664, 16778
0, 4, -1, 441, -678, 16772
7, 8, 2, 392, -694, 16739
12, 9, -3, 410, -700, 16718
11, 9, 2, 388, -708, 16701
12, 5, 3, 421, -709, 16680
6, 8, 3, 428, -713, 16700
4, 6, 1, 432, -716, 16715
5, 4, 0, 433, -729, 16759
11, 5, 0, 416, -726, 16793
14, 6, 3, 400, -723, 16806
14, 7, 1, 404, -714, 16800
8, 8, 0, 398, -710, 16770
13, 4, 3, 403, -697, 16744
10, 7, 0, 400, -682, 16710
11, 6, 0, 388, -682, 16704
10, 7, -2, 388, -675, 16709
9, 3, 3, 379, -685, 16717
9, 6, 3, 376, -705, 16739
7, 8, -5, 385, -712, 16758
8, 8, 5, 375, -715, 16793
15, 6, 1, 393, -712, 16824
9, 8, -2, 408, -708, 16847
8, 7, 1, 425, -698, 16847
10, 5, 5, 445, -693, 16833
9, 6, 9, 453, -693, 16803
7, 3, -2, 449, -689, 16788
9, 4, 1, 435, -695, 16771
14, 1, 3, 413, -703, 16763
12, 6, 7, 381, -707, 16755
11, 5, 5, 372, -713, 16740
13, 3, -4, 375, -707, 16728
11, 8, 4, 403, -694, 16683
9, 6, 2, 428, -671, 16672
11, 8, 0, 455, -662, 16656
7, 7, 1, 468, -664, 16684
2, 8, 3, 469, -673, 16730
13, 6, 0, 453, -694, 16767
14, 9, 0, 432, -704, 16803
7, 7, 2, 405, -718, 16826
8, 5, 3, 384, -719, 16823
9, 7, 5, 385, -723, 16818
9, 5, 2, 382, -721, 16797
10, 5, -1, 383, -714, 16784
8, 7, 0, 374, -714, 16779
9, 7, -1, 362, -732, 16781
9, 8, 0, 340, -747, 16764
7, 13, 3, 312, -761, 16727
5, 6, 3, 316, -779, 16704
8, 4, 6, 316, -768, 16685
11, 8, 4, 350, -761, 16699
5, 1, 1, 376, -755, 16734
9, 6, 2, 392, -733, 16779
13, 5, 2, 402, -721, 16822
11, 9, 2, 382, -708, 16855
7, 8, 1, 367, -700, 16868
9, 7, 3, 346, -698, 16836
9, 7, 2, 340, -706, 16821
8, 5, 0, 334, -695, 16777
9, 6, 0, 347, -697, 16750
13, 11, -1, 356, -695, 16759
11, 10, 2, 370, -707, 16755
10, 9, 0, 375, -716, 16770
8, 6, 1, 392, -724, 16771
7, 6, 0, 378, -710, 16752
11, 9, 1, 384, -699, 16737
17, 8, 4, 372, -684, 16714
15, 7, 3, 384, -679, 16711
11, 7, 4, 384, -673, 16696
12, 8, 4, 407, -676, 16689
10, 6, 6, 404, -682, 16697
4, 7, 8, 397, -704, 16721
7, 8, 3, 391, -714, 16747
8, 2, -2, 372, -745, 16767
17, 6, 2, 381, -762, 16777
9, 8, 5, 378, -788, 16765
4, 6, -1, 376, -790, 16773
11, 2, 7, 364, -776, 16764
11, 3, 2, 354, -745, 16776
13, 5, 2, 357, -707, 16777
14, 4, 3, 361, -689, 16790
7, 7, 0, 384, -670, 16808
8, 0, 0, 404, -668, 16816
12, 3, 4, 430, -661, 16822
8, 10, 0, 459, -684, 16826
7, 9, 2, 462, -698, 16807
6, 6, 7, 448, -713, 16814
7, 4, 3, 413, -732, 16804
13, 5, 1, 366, -722, 16810
11, 2, 2, 340, -720, 16815
12, 5, 0, 324, -702, 16814
15, 5, -1, 333, -701, 16818
8, 7, 0, 341, -681, 16808
6, 7, -1, 365, -677, 16800
8, 1, -4, 384, -667, 16808
7, -2, -1, 416, -662, 16808
7, 5, 3, 450, -666, 16825
13, 4, -1, 471, -671, 16836
14, 2, 4, 469, -665, 16842
12, 5, 9, 464, -664, 16844
12, 4, 0, 421, -648, 16839
11, 6, -1, 391, -647, 16833
17, 4, 1, 347, -641, 16824
7, 7, 6, 324, -659, 16824
7, 4, 5, 308, -673, 16818
8, 0, 6, 326, -700, 16806
5, 3, 1, 347, -722, 16774
3, 5, 1, 383, -735, 16746
8, 8, 5, 401, -743, 16723
7, 5, 1, 420, -751, 16734
8, 6, 1, 427, -743, 16746
8, 9, 1, 411, -747, 16785
11, 8, -3, 405, -733, 16798
10, 5, 3, 398, -725, 16829
10, 2, 6, 382, -708, 16844
14, 7, 2, 393, -711, 16863
9, 10, 0, 385, -705, 16868
10, 2, 0, 390, -712, 16868
11, 5, 1, 381, -714, 16865
8, 8, 2, 388, -704, 16856
8, 6, 1, 392, -715, 16853
11, 4, 6, 395, -709, 16833
7, 2, -1, 417, -730, 16798
7, 15, -2, 408, -724, 16763
8, 11, 1, 418, -722, 16722
12, 7, 5, 413, -711, 16700
11, 5, 3, 414, -719, 16703
9, 11, 4, 406, -714, 16708
5, 12, 2, 405, -731, 16733
8, 7, 3, 401, -734, 16741
8, 7, 2, 399, -730, 16760
9, 5, 1, 412, -725, 16770
12, 12, 0, 421, -730, 16765
8, 16, -1, 446, -716, 16776
8, 6, 1, 461, -724, 16784
6, 11, 0, 471, -727, 16803
5, 4, 6, 456, -727, 16802
11, 8, 5, 436, -729, 16814
16, 8, 3, 417, -723, 16810
17, 10, 0, 409, -721, 16810
9, 7, 0, 410, -719, 16819
8, 5, 2, 415, -726, 16804
10, 4, 1, 419, -728, 16791
6, 2, 1, 428, -722, 16762
7, 1, 0, 425, -721, 16746
9, 5, 1, 437, -719, 16733
4, 10, -1, 416, -731, 16735
8, 7, -1, 425, -725, 16743
9, 7, 5, 406, -739, 16757
6, 8, 4, 414, -714, 16757
9, 7, 1, 415, -719, 16750
12, 5, 3, 416, -704, 16726
15, 1, -2, 432, -714, 16705
8, 3, -1, 437, -713, 16689
6, 4, 1, 447, -727, 16685
13, 4, 1, 454, -727, 16688
11, 6, 3, 460, -721, 16702
7, 8, 5, 455, -721, 16723
9, 4, 3, 428, -700, 16715
8, 10, 2, 394, -681, 16730
13, 8, 6, 360, -668, 16717
10, 8, 5, 346, -651, 16726
11, 7, 2, 375, -659, 16726
8, 9, 0, 387, -663, 16758
6, 5, 2, 417, -671, 16772
7, 5, 0, 412, -663, 16776
5, 5, 4, 396, -660, 16801
4, 1, 8, 376, -666, 16790
6, 5, 1, 366, -672, 16793
4, 6, 1, 366, -700, 16789
10, 11, 2, 397, -705, 16757
8, 11, 0, 439, -731, 16732
8, 4, -1, 464, -739, 16698
12, 0, 0, 472, -743, 16688
8, 4, 8, 459, -747, 16691
10, 14, 1, 444, -729, 16711
9, 11, 1, 444, -704, 16720
14, 6, 2, 444, -685, 16732
7, 2, -2, 456, -655, 16732
13, 3, -1, 441, -644, 16726
7, 4, 3, 426, -648, 16744
8, 5, 1, 418, -661, 16757
9, 8, 3, 402, -685, 16778
7, 5, 7, 413, -713, 16780
5, 5, 1, 420, -742, 16779
14, 5, -1, 436, -749, 16773
14, 7, -1, 447, -754, 16766
10, 6, 2, 450, -737, 16777
3, 5, -2, 436, -727, 16762
3, 9, -3, 424, -712, 16764
13, 6, 2, 414, -721, 16755
7, 5, -4, 411, -735, 16768
2, 8, 1, 423, -752, 16766
11, 7, 2, 420, -764, 16768
11, 9, 8, 423, -763, 16726
10, 3, 3, 406, -740, 16703
9, 7, -3, 391, -707, 16682
15, 13, 2, 384, -674, 16695
12, 9, -1, 372, -665, 16727
6, 8, -3, 377, -658, 16761
5, 5, 4, 400, -687, 16784
10, 6, 4, 409, -725, 16799
12, 9, 3, 433, -756, 16804
10, 7, 1, 421, -790, 16802
6, 6, 1, 412, -796, 16808
10, 0, 1, 400, -780, 16791
8, 11, 0, 408, -743, 16792
10, 11, -1, 432, -706, 16764
14, 4, -6, 454, -691, 16746
8, 4, 3, 457, -685, 16731
4, 9, 3, 452, -704, 16726
5, 9, 4, 426, -725, 16755
11, 13, 6, 425, -734, 16787
6, 11, 3, 423, -734, 16824
6, 5, -3, 432, -720, 16838
10, 3, 0, 435, -712, 16835
16, 5, -2, 425, -700, 16815
15, 8, 1, 415, -698, 16786
6, 6, 3, 417, -695, 16773
2, 3, 11, 413, -677, 16758
8, 5, -1, 417, -674, 16747
12, 7, -1, 400, -670, 16761
5, 11, 5, 385, -692, 16755
9, 7, 2, 369, -707, 16775
12, 7, 3, 365, -722, 16772
12, 7, 0, 371, -727, 16797
7, 3, 5, 360, -726, 16781
5, 1, 6, 380, -719, 16790
7, 4, 3, 379, -719, 16768
13, 9, -4, 399, -730, 16750
11, 9, -3, 404, -730, 16721
4, 4, -5, 408, -734, 16708
9, 4, 4, 410, -734, 16698
8, 5, 3, 424, -716, 16694
7, 6, 1, 431, -708, 16707
8, 8, 2, 432, -709, 16717
6, 9, 1, 422, -714, 16722
12, 9, 1, 390, -722, 16732
13, 7, -2, 380, -721, 16722
11, 9, 5, 362, -733, 16720
10, 5, 6, 364, -712, 16720
11, 5, 2, 371, -696, 16743
5, 5, 0, 402, -686, 16762
5, 7, 2, 417, -657, 16780
9, 8, -2, 434, -668, 16777
13, 8, 0, 442, -673, 16772
9, 10, 2, 418, -675, 16755
10, 5, 5, 410, -685, 16767
12, 1, 3, 392, -670, 16778
10, 5, 4, 394, -670, 16785
10, 1, 6, 388, -675, 16801
10, 3, 7, 374, -700, 16788
11, 10, 5, 366, -738, 16789
9, 10, 5, 350, -782, 16777
8, 3, 7, 359, -795, 16773
4, 7, 3, 372, -790, 16779
9, 11, 0, 393, -770, 16760
10, 8, 0, 414, -737, 16755
5, 10, 7, 421, -723, 16741
4, 13, 6, 451, -703, 16739
9, 5, 2, 460, -699, 16747
11, 5, 4, 477, -698, 16760
7, 6, 1, 477, -703, 16773
9, 3, 4, 459, -714, 16772
6, 1, 2, 455, -723, 16780
8, 8, 6, 438, -726, 16778
7, 7, 0, 434, -738, 16782
11, 9, -1, 434, -738, 16785
7, 2, 4, 402, -743, 16802
9, 6, 1, 405, -747, 16820
9, 7, 4, 379, -754, 16828
8, 8, 3, 406, -749, 16831
9, 8, 5, 407, -745, 16824
8, 6, 3, 426, -730, 16817
9, 5, 2, 425, -722, 16818
9, 3, 5, 410, -723, 16834
6, 5, 1, 397, -726, 16833
9, 10, -9, 402, -732, 16834
12, 6, -1, 408, -745, 16815
7, 2, 5, 440, -743, 16800
6, 8, 8, 449, -749, 16782
9, 7, 0, 444, -736, 16764
7, 6, -3, 431, -732, 16775
6, 7, 0, 400, -714, 16762
9, 5, 4, 383, -713, 16765
11, 8, 6, 365, -710, 16765
10, 3, 0, 384, -703, 16760
9, 2, -5, 387, -699, 16781
10, 1, 4, 427, -688, 16797
8, 5, 0, 437, -679, 16806
15, 4, 2, 450, -683, 16803
15, 5, 3, 446, -703, 16792
8, 7, 3, 443, -707, 16780
9, 10, 8, 432, -734, 16787
8, 3, -1, 432, -723, 16792
9, 6, -2, 423, -715, 16804
11, 4, 3, 412, -703, 16803
12, 3, 4, 414, -680, 16807
8, 8, 3, 386, -676, 16797
5, 8, 1, 361, -677, 16806
7, 6, 5, 350, -704, 16798
3, 2, 0, 338, -717, 16811
5, 5, 3, 347, -740, 16808
13, 9, 4, 366, -740, 16812
13, 11, 2, 370, -742, 16808
6, 8, 1, 372, -737, 16808
6, 5, 3, 385, -737, 16773
13, 2, 0, 384, -747, 16749
16, 2, -1, 410, -760, 16697
9, 10, 2, 404, -769, 16670
5, 6, 5, 401, -766, 16668
11, 3, 4, 370, -760, 16695
11, 5, 0, 363, -733, 16729
10, 9, 1, 344, -723, 16779
11, 9, 0, 360, -703, 16793
12, 7, -2, 361, -700, 16804
7, 4, -5, 367, -689, 16817
4, 6, 3, 355, -703, 16813
6, 8, 0, 353, -709, 16834
9, 11, 0, 358, -725, 16834
11, 7, 0, 367, -734, 16822
12, 9, 2, 382, -739, 16808
11, 5, 3, 401, -730, 16806
10, 6, 1, 407, -718, 16797
7, 7, 3, 403, -710, 16806
4, 7, 6, 412, -702, 16804
9, 6, 0, 406, -694, 16783
7, 3, -1, 414, -702, 16776
7, 4, 0, 419, -699, 16760
6, 8, 3, 418, -714, 16752
5, 10, -3, 410, -733, 16754
8, 5, -2, 392, -755, 16752
7, 1, 0, 373, -756, 16747
6, 3, 8, 363, -757, 16737
13, 6, 5, 366, -737, 16722
12, 6, -1, 393, -705, 16717
14, 10, 0, 419, -680, 16708
5, 6, -1, 434, -662, 16721
13, 7, 0, 426, -645, 16721
13, 6, -4, 406, -654, 16737
11, 1, -3, 370, -664, 16762
7, 4, 2, 362, -666, 16777
12, 5, 0, 357, -680, 16796
12, 4, 1, 369, -683, 16805
11, 9, 1, 378, -689, 16793
14, 6, 6, 384, -701, 16793
12, 2, 1, 372, -710, 16786
7, 4, 2, 371, -723, 16785
11, 9, 3, 359, -724, 16774
14, 8, 1, 345, -739, 16769
5, 11, 2, 341, -740, 16770
4, 6, 1, 343, -744, 16774
11, 5, -5, 373, -741, 16785
13, 8, -3, 398, -732, 16783
10, 9, -2, 406, -723, 16771
8, 8, 6, 407, -699, 16767
13, 5, 4, 387, -687, 16757
7, 8, -2, 364, -663, 16754
9, 8, -4, 358, -650, 16750
12, 7, 4, 343, -638, 16728
8, 8, 2, 354, -629, 16721
5, 7, 0, 371, -639, 16699
5, 4, 3, 382, -663, 16697
8, 6, 1, 388, -700, 16678
13, 10, 4, 384, -731, 16700
10, 8, 3, 387, -732, 16712
9, 3, -1, 394, -711, 16750
7, 8, 2, 406, -673, 16766
5, 6, -4, 395, -642, 16784
11, 6, -3, 384, -624, 16780
11, 6, 3, 373, -625, 16791
8, 10, 1, 371, -637, 16775
8, 8, 0, 379, -658, 16766
7, 3, -4, 404, -671, 16768
7, 7, -6, 409, -690, 16752
17, 9, -10, 433, -701, 16759
9, 5, -8, 439, -724, 16749
13, 7, 4, 425, -739, 16726
12, 5, 6, 417, -752, 16711
5, 8, 8, 386, -737, 16701
5, 10, 2, 368, -707, 16706
4, 11, -1, 371, -664, 16723
8, 10, 0, 368, -635, 16732
8, 8, 2, 399, -621, 16743
8, 8, -3, 400, -641, 16748
10, 7, -3, 393, -672, 16742
12, 9, 1, 382, -709, 16757
9, 5, 2, 340, -736, 16774
12, 6, 4, 334, -758, 16778
8, 5, 7, 324, -759, 16776
10, 3, 2, 326, -757, 16749
9, 7, 7, 355, -745, 16719
12, 7, 2, 379, -734, 16690
13, 4, 2, 403, -710, 16676
10, 8, 2, 416, -691, 16665
10, 4, -5, 402, -667, 16665
8, 5, 5, 383, -645, 16676
7, 6, -2, 374, -645, 16687
3, 7, 3, 388, -656, 16702
6, 8, 4, 404, -688, 16717
14, 5, 1, 422, -710, 16732
9, 5, 4, 442, -735, 16737
7, 3, 4, 437, -735, 16752
7, 4, -2, 434, -726, 16742
8, 7, -3, 414, -703, 16751
10, 4, 2, 391, -696, 16767
9, 3, 3, 354, -693, 16804
12, 4, -5, 354, -701, 16833
13, 6, 1, 336, -719, 16864
9, 5, 6, 359, -729, 16878
5, 6, 7, 374, -742, 16861
7, 6, -3, 386, -756, 16862
10, 9, 2, 400, -765, 16843
8, 6, 2, 392, -769, 16847
8, 2, 1, 391, -767, 16827
5, 8, 0, 401, -744, 16829
7, 8, 2, 398, -724, 16809
11, 8, 3, 415, -694, 16809
9, 8, 1, 408, -683, 16801
7, 5, 0, 398, -673, 16797
6, 5, 4, 395, -681, 16793
9, 6, -1, 392, -680, 16797
8, 11, -1, 398, -693, 16804
13, 12, -1, 433, -690, 16808
11, 8, -2, 442, -696, 16809
9, 5, -2, 445, -699, 16782
8, 8, -1, 445, -694, 16771
3, 8, 0, 432, -705, 16750
5, 2, 1, 426, -706, 16749
15, 6, 0, 443, -721, 16746
9, 6, -2, 435, -723, 16758
12, 8, 5, 432, -723, 16764
7, 7, 5, 413, -711, 16777
4, 6, -1, 392, -699, 16794
8, 5, 0, 390, -706, 16800
5, 0, 2, 380, -701, 16807
5, 1, 3, 393, -715, 16795
9, 6, 1, 411, -701, 16788
10, 5, 2, 410, -705, 16792
11, 5, 3, 425, -693, 16799
13, 3, 2, 418, -701, 16816
8, 5, 1, 414, -677, 16816
4, 3, -3, 405, -661, 16818
6, 6, -3, 402, -647, 16812
10, 6, 2, 408, -648, 16819
9, 4, 1, 405, -678, 16805
14, 8, 5, 404, -703, 16801
10, 8, 0, 390, -717, 16787
10, 6, 2, 376, -720, 16773
9, 9, 7, 353, -720, 16790
12, 8, -1, 367, -716, 16792
11, 7, -2, 378, -719, 16800
12, 8, 2, 404, -714, 16813
5, 5, 0, 432, -706, 16808
5, 10, 3, 435, -695, 16812
9, 7, 5, 429, -697, 16794
9, 6, 2, 401, -711, 16769
12, 6, 1, 373, -737, 16756
6, 8, -1, 348, -775, 16729
10, 9, 1, 343, -796, 16727
11, 9, 2, 352, -806, 16724
11, 11, 5, 379, -811, 16695
9, 6, 1, 400, -786, 16713
7, 9, 1, 429, -765, 16701
4, 8, 3, 444, -722, 16725
3, 12, 2, 443, -689, 16739
5, 15, -1, 436, -664, 16768
10, 10, 1, 399, -670, 16796
13, 7, 7, 371, -680, 16825
9, 4, 5, 337, -707, 16865
9, 2, -2, 327, -732, 16882
8, -1, -5, 329, -737, 16878
12, 5, 1, 338, -745, 16866
12, 8, 6, 354, -731, 16845
7, 9, -2, 381, -721, 16835
6, 9, -4, 409, -721, 16844
10, 7, 0, 431, -729, 16859
7, 3, 0, 454, -738, 16877
12, 7, -2, 435, -747, 16847
14, 8, -2, 426, -749, 16826
7, 4, 0, 403, -749, 16769
4, 9, 4, 379, -742, 16750
11, 10, 4, 369, -737, 16741
10, 6, 1, 353, -728, 16756
7, 2, -3, 345, -723, 16777
8, 4, -7, 349, -730, 16778
10, 10, 2, 362, -733, 16774
10, 9, -2, 370, -740, 16767
12, 4, -1, 384, -740, 16750
10, 5, 0, 384, -745, 16732
8, 11, 2, 395, -737, 16728
6, 4, 1, 406, -748, 16724
9, 7, 2, 423, -739, 16726
7, 7, -1, 438, -737, 16751
7, 10, 2, 438, -724, 16755
11, 3, 3, 442, -698, 16771
14, 4, 3, 437, -686, 16779
10, 5, 4, 442, -686, 16796
10, 6, 4, 441, -716, 16805
13, 2, 5, 436, -760, 16795
9, 4, 4, 423, -784, 16790
13, 9, -1, 409, -782, 16752
10, 10, 1, 397, -759, 16747
6, 10, 2, 388, -724, 16749
9, 4, 2, 375, -709, 16780
9, 6, 5, 369, -705, 16805
9, 11, 6, 366, -710, 16841
6, 8, -2, 354, -714, 16852
10, 2, -4, 378, -731, 16856
10, 3, 0, 383, -740, 16838
10, 8, -1, 414, -749, 16830
11, 13, -1, 419, -761, 16805
9, 7, -1, 424, -758, 16800
8, 8, -2, 400, -761, 16793
5, 3, 1, 398, -759, 16790
5, 5, 3, 383, -753, 16789
9, 2, 5, 396, -738, 16785
13, 6, 3, 388, -722, 16792
6, 10, 1, 398, -700, 16806
8, 6, -1, 406, -689, 16813
10, 7, 1, 429, -676, 16813
15, 5, 1, 439, -671, 16796
10, 3, 0, 441, -679, 16746
9, 7, 7, 428, -680, 16706
10, 8, 2, 400, -690, 16680
13, 4, 7, 401, -695, 16662
10, 6, 4, 390, -689, 16678
8, 7, -3, 415, -692, 16691
10, 5, 3, 404, -694, 16711
12, 4, 4, 416, -710, 16741
14, 7, 4, 404, -713, 16787
11, 5, -1, 396, -723, 16828
10, 6, -9, 394, -721, 16842
12, 3, 0, 393, -733, 16844
11, 9, 0, 411, -742, 16816
10, 10, 3, 418, -748, 16786
9, 4, 2, 436, -755, 16771
9, 3, 3, 433, -746, 16760
4, 4, 3, 415, -745, 16766
7, 8, 2, 396, -749, 16787
11, 8, 4, 354, -755, 16803
9, 7, -1, 325, -757, 16830
7, 4, 0, 304, -750, 16831
7, 8, 1, 309, -727, 16836
9, 11, -2, 338, -727, 16831
11, 10, 0, 374, -706, 16835
6, 7, 1, 404, -698, 16834
4, 6, -1, 422, -683, 16828
10, 2, -1, 438, -658, 16809
8, 2, 1, 433, -648, 16792
10, 8, 1, 428, -663, 16771
12, 7, 1, 402, -688, 16761
11, 10, 4, 378, -722, 16762
9, 8, 3, 369, -748, 16760
7, 6, -3, 370, -773, 16765
6, 9, -3, 376, -770, 16768
8, 8, -1, 383, -769, 16766
7, 10, -1, 381, -756, 16756
6, 8, 3, 378, -731, 16750
8, 7, 1, 383, -724, 16743
13, 5, 3, 388, -714, 16746
7, 9, 0, 397, -720, 16747
6, 7, -1, 395, -734, 16767
6, 7, 4, 406, -744, 16769
5, 9, 4, 391, -765, 16771
8, 4, 1, 384, -781, 16786
7, 5, -4, 360, -787, 16770
9, 6, 1, 357, -784, 16776
11, 6, 0, 348, -770, 16767
13, 3, -1, 378, -747, 16753
15, 6, -2, 406, -726, 16764
13, 6, -1, 426, -706, 16748
9, 6, -3, 453, -706, 16786
7, 7, 4, 434, -697, 16782
10, 4, 3, 427, -703, 16793
6, 3, 1, 399, -707, 16785
9, 9, -2, 409, -703, 16781
12, 6, -1, 419, -707, 16770
11, 5, 4, 445, -713, 16792
7, 3, 3, 464, -710, 16790
12, 7, 5, 481, -714, 16802
11, 7, 3, 496, -710, 16786
11, 10, 2, 492, -703, 16778
9, 7, 4, 493, -689, 16771
9, 5, 4, 472, -674, 16780
9, 7, 3, 438, -653, 16784
9, 4, 4, 410, -636, 16781
11, 5, 1, 380, -635, 16764
12, 7, 3, 362, -636, 16743
8, 3, 4, 354, -666, 16743
9, 6, -1, 365, -689, 16735
8, 9, -3, 376, -726, 16746
9, 8, 0, 387, -761, 16763
9, 5, 0, 409, -775, 16769
11, 4, -4, 416, -793, 16784
10, 6, 0, 425, -773, 16803
10, 5, 0, 435, -752, 16796
13, 4, 0, 427, -713, 16793
7, 6, 1, 430, -698, 16779
9, 7, 0, 421, -684, 16770
10, 3, 3, 404, -688, 16773
8, 6, 3, 387, -688, 16779
7, 6, 1, 380, -674, 16787
12, 4, -2, 372, -652, 16791
9, 7, 6, 376, -653, 16806
8, 10, 6, 377, -650, 16812
8, 3, 6, 391, -690, 16827
6, 5, 4, 403, -714, 16821
6, 6, 3, 427, -750, 16809
8, 6, -1, 437, -761, 16790
9, 7, 0, 436, -755, 16760
7, 6, 1, 418, -736, 16746
8, 10, 4, 407, -707, 16734
14, 8, 3, 394, -703, 16737
10, 1, 3, 407, -708, 16755
5, 4, 0, 409, -720, 16772
8, 9, 0, 430, -743, 16796
9, 8, 1, 439, -736, 16806
10, 7, -1, 466, -743, 16795
9, 10, -1, 471, -733, 16778
10, 7, 2, 469, -733, 16755
11, 8, 1, 448, -721, 16749
8, 9, 1, 399, -706, 16742
9, 6, 1, 368, -700, 16750
5, 8, 2, 351, -694, 16756
10, 3, -2, 358, -713, 16766
10, 11, 3, 394, -728, 16773
9, 7, -2, 417, -742, 16785
7, 6, -3, 455, -748, 16766
10, 6, 4, 461, -740, 16775
12, 5, 1, 458, -734, 16784
8, 7, 2, 453, -723, 16805
11, 6, 6, 425, -712, 16831
6, 6, 1, 436, -705, 16821
7, 6, 2, 425, -694, 16805
12, 6, 4, 445, -689, 16780
8, 3, 2, 451, -684, 16756
7, 5, -1, 448, -684, 16748
9, 8, 3, 441, -699, 16747
10, 7, 5, 433, -720, 16746
8, 4, 2, 427, -753, 16745
10, 5, 0, 430, -772, 16770
9, 5, -1, 436, -791, 16780
7, 5, 4, 443, -791, 16773
12, 6, 6, 436, -784, 16789
13, 7, 6, 422, -782, 16773
9, 5, 5, 405, -769, 16773
7, 8, 3, 395, -757, 16767
7, 9, 2, 396, -740, 16745
10, 6, 0, 433, -722, 16713
7, 6, 3, 445, -728, 16694
10, 5, 0, 466, -721, 16692
6, 2, -5, 459, -736, 16711
8, 3, -2, 432, -732, 16740
8, 8, -3, 401, -733, 16779
5, 11, 0, 371, -727, 16784
7, 9, 2, 352, -736, 16799
8, 7, -2, 356, -736, 16790
10, 3, 1, 367, -725, 16782
4, 6, -2, 375, -712, 16776
10, 5, -2, 388, -694, 16757
9, 6, 2, 388, -677, 16745
8, 7, 2, 404, -671, 16724
7, 2, 0, 412, -679, 16715
10, 8, 2, 438, -679, 16713
12, 10, -4, 436, -692, 16714
11, 5, -4, 455, -704, 16729
5, 9, 3, 448, -715, 16744
2, 8, -2, 464, -718, 16761
10, 10, 7, 460, -710, 16768
12, 7, 7, 456, -692, 16778
8, 9, 1, 444, -682, 16781
7, 11, -3, 398, -676, 16793
10, 8, -2, 391, -685, 16796
12, 5, 1, 371, -708, 16795
9, 4, -1, 402, -726, 16780
13, 6, 3, 440, -744, 16776
10, 8, -1, 488, -752, 16772
8, 8, 4, 516, -753, 16776
15, 4, 0, 515, -753, 16757
10, 2, -1, 481, -752, 16749
4, 10, 1, 424, -754, 16725
7, 10, 2, 379, -741, 16724
8, 3, 2, 343, -731, 16730
9, 2, 0, 338, -713, 16733
6, 10, -1, 347, -698, 16720
9, 10, -3, 339, -700, 16715
13, 6, 2, 361, -694, 16707
11, 8, 4, 343, -695, 16711
12, 4, 6, 355, -703, 16730
7, 8, 8, 350, -711, 16738
5, 6, 0, 353, -734, 16744
10, 6, -1, 370, -745, 16774
12, 4, 0, 365, -780, 16797
8, 6, 0, 385, -782, 16816
12, 8, 4, 377, -794, 16814
6, 11, 3, 388, -788, 16796
10, 9, 1, 400, -768, 16757
7, 5, 4, 404, -750, 16732
6, 4, 4, 407, -731, 16708
12, 5, 4, 392, -711, 16705
10, 6, -1, 372, -696, 16708
8, 8, -3, 353, -679, 16721
13, 6, 0, 342, -669, 16749
14, 9, 4, 346, -679, 16736
8, 5, 3, 366, -687, 16749
12, 5, 3, 395, -706, 16751
11, 7, 4, 425, -718, 16765
9, 9, 1, 441, -713, 16788
10, 5, 5, 438, -722, 16812
9, 6, 4, 435, -719, 16820
9, 11, -4, 428, -713, 16847
4, 7, -2, 434, -718, 16875
7, 5, 1, 449, -713, 16880
8, 6, -1, 448, -706, 16868
7, 9, 2, 453, -714, 16834
9, 11, 9, 435, -718, 16791
13, 9, 3, 426, -728, 16755
12, 3, -4, 408, -732, 16747
9, 7, 1, 411, -741, 16743
14, 12, -3, 409, -739, 16744
11, 7, 1, 410, -721, 16779
13, 5, 3, 417, -712, 16813
6, 4, 6, 407, -692, 16845
4, 7, 0, 401, -685, 16880
12, 6, 0, 392, -697, 16866
9, 2, 4, 397, -695, 16839
4, 9, 3, 411, -699, 16796
5, 6, 6, 424, -696, 16759
13, 4, -5, 442, -686, 16727
9, 10, -3, 447, -685, 16721
12, 8, 4, 446, -690, 16724
11, 8, -2, 430, -691, 16744
7, 5, 0, 425, -706, 16761
10, 7, 2, 411, -706, 16772
10, 5, 2, 414, -723, 16772
8, 6, 1, 413, -716, 16776
8, 4, -1, 413, -721, 16783
6, 7, -2, 418, -719, 16789
13, 8, 5, 422, -713, 16788
12, 4, 2, 431, -710, 16783
7, 6, 2, 441, -717, 16784
8, 8, -2, 430, -719, 16771
11, 9, -3, 424, -731, 16776
14, 4, 0, 428, -718, 16757
8, 1, 1, 435, -707, 16747
7, 5, 3, 439, -698, 16745
12, 11, 2, 453, -696, 16742
10, 7, -5, 437, -724, 16746
9, 4, 1, 424, -747, 16739
11, 4, -1, 415, -755, 16737
13, 7, -1, 417, -765, 16750
9, 9, 5, 417, -756, 16747
13, 5, 1, 430, -750, 16760
10, 10, 0, 421, -739, 16762
7, 12, 4, 409, -741, 16755
7, 2, 1, 377, -742, 16755
11, 6, 3, 364, -753, 16756
12, 7, 5, 329, -760, 16773
8, 8, -1, 314, -750, 16779
10, 7, -2, 305, -720, 16799
9, 6, -2, 321, -696, 16795
8, 1, -6, 334, -670, 16778
7, 2, 6, 364, -655, 16756
8, 8, 5, 391, -663, 16748
6, 6, 2, 418, -676, 16762
11, 6, 2, 464, -717, 16780
11, 4, 3, 487, -764, 16812
7, 3, -2, 486, -803, 16829
11, 5, 1, 462, -802, 16830
12, 10, 5, 428, -786, 16827
10, 11, -2, 404, -736, 16812
7, 6, 1, 403, -715, 16788
8, 4, 2, 398, -689, 16778
10, 5, 0, 399, -705, 16771
8, 7, -1, 384, -714, 16779
7, 4, 2, 371, -735, 16783
7, 2, -1, 362, -747, 16789
8, 5, 0, 384, -748, 16802
9, 8, 3, 411, -739, 16797
6, 8, 0, 462, -721, 16809
6, 6, 2, 493, -698, 16801
11, 4, 4, 501, -682, 16790
12, 7, 0, 471, -671, 16793
8, 7, 3, 438, -668, 16806
7, 8, 4, 414, -675, 16824
7, 10, 0, 391, -686, 16824
8, 7, -1, 407, -692, 16798
6, 9, 3, 387, -701, 16752
5, 7, 6, 383, -720, 16711
12, 4, -3, 365, -732, 16680
9, 5, -2, 357, -750, 16676
5, 9, 2, 355, -757, 16669
8, 3, 3, 355, -745, 16694
9, 5, 1, 349, -733, 16694
7, 3, -1, 345, -708, 16723
8, 10, -1, 331, -701, 16743
10, 11, 0, 334, -680, 16746
14, 8, 6, 326, -679, 16772
7, 10, 6, 352, -669, 16781
5, 10, -1, 353, -678, 16792
7, 8, -2, 390, -694, 16810
8, 6, -1, 408, -715, 16803
14, 2, 1, 426, -733, 16805
10, 4, 1, 430, -742, 16805
11, 7, 0, 418, -742, 16811
13, 8, 1, 391, -736, 16824
10, 11, 5, 366, -732, 16853
12, 10, 0, 355, -742, 16858
14, 5, 2, 344, -748, 16875
12, 6, 2, 352, -770, 16869
8, 6, 1, 359, -765, 16863
10, 7, 3, 351, -763, 16835
9, 10, 3, 333, -740, 16820
3, 6, 2, 320, -736, 16778
5, 8, 3, 315, -724, 16774
7, 8, 5, 331, -735, 16737
12, 7, 5, 360, -733, 16755
10, 7, 2, 388, -725, 16733
5, 3, 3, 403, -709, 16739
5, 7, 2, 424, -690, 16744
12, 4, 0, 425, -673, 16745
12, 5, 2, 426, -676, 16746
13, 7, 7, 417, -667, 16733
12, 8, 1, 392, -682, 16730
8, 6, 1, 369, -694, 16723
8, 10, 1, 345, -712, 16754
9, 10, -2, 339, -741, 16756
10, 8, -3, 345, -744, 16795
12, 5, 0, 370, -742, 16815
8, 6, 0, 399, -721, 16832
6, 7, -2, 407, -709, 16846
8, 6, 3, 414, -690, 16827
11, 7, 1, 437, -699, 16804
8, 4, -3, 438, -693, 16764
9, 6, -1, 455, -693, 16761
6, 7, -1, 453, -695, 16745
7, 8, 0, 426, -696, 16750
9, 7, 0, 411, -701, 16753
9, 6, 2, 390, -694, 16763
11, 7, 1, 404, -687, 16759
10, 4, 4, 414, -668, 16780
8, 2, 5, 425, -678, 16784
8, 8, 2, 434, -684, 16793
10, 7, 2, 417, -712, 16794
9, 7, -2, 399, -737, 16782
6, 10, 0, 392, -738, 16783
6, 4, 6, 380, -749, 16782
11, 8, 4, 382, -742, 16795
8, 10, -4, 386, -738, 16791
11, 6, 2, 390, -733, 16781
12, 5, 5, 399, -741, 16755
8, 6, -1, 408, -733, 16743
9, 7, -3, 411, -741, 16730
10, 9, 0, 403, -741, 16715
11, 6, 4, 403, -736, 16719
9, 8, 5, 388, -730, 16701
8, 14, -1, 392, -723, 16714
11, 9, -3, 405, -713, 16719
13, 4, 4, 417, -706, 16737
12, 6, 2, 443, -695, 16748
5, 5, 0, 453, -681, 16781
7, 5, 3, 462, -662, 16793
7, 3, -1, 456, -671, 16819
10, 8, 0, 450, -678, 16825
9, 6, 5, 428, -699, 16837
5, 9, 1, 415, -723, 16830
7, 6, -2, 388, -727, 16825
11, 6, 0, 388, -734, 16804
11, 5, 0, 386, -737, 16789
10, 6, 1, 408, -719, 16773
8, 9, 5, 410, -706, 16785
7, 8, 5, 425, -685, 16791
10, 5, 0, 421, -664, 16780
13, 9, 0, 426, -664, 16764
8, 4, -1, 437, -674, 16731
8, 6, 0, 441, -682, 16725
12, 9, 6, 441, -713, 16724
9, 6, 0, 440, -708, 16738
11, 5, 3, 414, -722, 16738
9, 5, 2, 405, -722, 16738
12, 6, -2, 370, -724, 16739
14, 6, 3, 368, -733, 16755
9, 7, -2, 359, -732, 16774
10, 3, -1, 367, -731, 16781
4, 7, 3, 387, -725, 16776
6, 7, 2, 381, -717, 16767
11, 8, 0, 381, -705, 16752
3, 8, -1, 358, -685, 16745
12, 7, 4, 338, -699, 16740
14, 8, 1, 324, -707, 16754
10, 7, -1, 326, -740, 16746
6, 7, 1, 344, -762, 16757
11, 9, 1, 380, -769, 16747
9, 6, 3, 395, -760, 16746
12, 7, 3, 418, -758, 16766
10, 8, 1, 428, -749, 16797
16, 8, 1, 434, -758, 16833
10, 3, -2, 465, -757, 16868
5, 8, 2, 454, -756, 16880
6, 9, 5, 449, -758, 16890
5, 4, -2, 429, -749, 16859
7, 7, 0, 423, -757, 16832
10, 6, 4, 438, -753, 16787
12, 7, 0, 468, -749, 16762
10, 6, 0, 476, -728, 16762
6, 6, 2, 471, -715, 16772
9, 4, 1, 432, -694, 16793
10, 5, 1, 394, -700, 16790
10, 7, 2, 365, -690, 16775
4, 6, -2, 360, -696, 16770
7, 7, -5, 378, -697, 16768
16, 5, 5, 405, -708, 16789
11, 7, 2, 426, -727, 16814
10, 10, 1, 428, -734, 16807
7, 5, 1, 424, -739, 16798
7, 7, 7, 403, -732, 16773
12, 8, 6, 376, -729, 16771
11, 9, 5, 372, -723, 16768
6, 4, 3, 376, -718, 16773
10, 6, 1, 408, -732, 16767
9, 7, 3, 433, -732, 16765
10, 5, 2, 449, -749, 16771
7, 2, 3, 443, -757, 16785
11, 8, 1, 432, -745, 16802
10, 9, 1, 407, -741, 16818
8, 9, -3, 386, -727, 16827
8, 4, 1, 362, -720, 16847
7, 6, -1, 338, -712, 16839
8, 3, 6, 322, -706, 16836
5, 8, 0, 313, -678, 16814
7, 8, 0, 312, -664, 16787
12, 3, 3, 312, -638, 16768
12, 3, 3, 333, -647, 16756
6, 5, 1, 358, -659, 16755
3, 11, 0, 367, -691, 16743
9, 7, 3, 385, -724, 16744
8, 8, -1, 379, -745, 16737
10, 3, 1, 380, -766, 16738
12, 3, -1, 386, -758, 16725
11, 0, 0, 392, -745, 16744
8, -1, -1, 414, -717, 16739
7, 4, -4, 438, -691, 16760
12, 6, -1, 458, -679, 16785
9, 5, -2, 464, -675, 16801
9, 7, 0, 444, -682, 16826
11, 6, 1, 416, -694, 16837
12, 2, 1, 388, -703, 16833
10, 6, 5, 386, -703, 16833
5, 6, 3, 388, -700, 16803
9, 7, 4, 413, -704, 16788
6, 8, 5, 422, -694, 16766
7, 7, 3, 435, -702, 16777
10, 9, 1, 430, -701, 16768
9, 4, 3, 412, -714, 16789
8, 6, 5, 398, -732, 16784
9, 6, -4, 390, -742, 16779
11, 2, -2, 387, -742, 16764
10, 2, -3, 384, -721, 16759
8, 9, -3, 381, -702, 16752
7, 10, 1, 365, -696, 16762
5, 1, 4, 366, -702, 16776
11, 4, 0, 377, -722, 16786
10, 5, -4, 392, -735, 16786
10, 10, 0, 415, -743, 16792
7, 6, 1, 411, -751, 16793
12, 7, -1, 413, -749, 16803
13, 3, 4, 402, -738, 16819
6, 6, -3, 405, -736, 16814
8, 5, -2, 406, -733, 16838
6, 3, 0, 422, -735, 16820
10, 6, -2, 416, -737, 16814
5, 2, -1, 415, -726, 16793
2, 5, 1, 413, -701, 16782
8, 4, 4, 396, -680, 16770
8, 3, 3, 383, -657, 16766
4, 5, -3, 379, -651, 16772
6, 3, 0, 371, -666, 16773
11, 8, 2, 381, -688, 16779
14, 3, -6, 385, -716, 16784
10, 6, -5, 378, -726, 16799
11, 6, 0, 363, -725, 16792
7, 7, -1, 347, -717, 16802
7, 10, 0, 333, -709, 16791
11, 7, 4, 349, -718, 16780
7, 3, 9, 354, -718, 16781
7, 5, 9, 362, -729, 16759
14, 6, 6, 362, -722, 16776
9, 9, 0, 357, -714, 16762
9, 9, 0, 351, -702, 16767
12, 10, -5, 365, -696, 16776
10, 5, -1, 383, -703, 16797
7, 6, 1, 399, -705, 16830
6, 5, 2, 410, -720, 16845
11, 9, 2, 409, -727, 16852
7, 8, 1, 401, -740, 16835
7, 7, -1, 378, -723, 16789
7, 6, 2, 383, -718, 16769
8, 7, 2, 391, -694, 16733
8, 3, 6, 420, -677, 16749
11, 5, -1, 459, -684, 16755
11, 7, 2, 482, -697, 16781
8, 9, 4, 491, -717, 16794
15, 8, -1, 483, -745, 16806
15, 10, -3, 463, -771, 16789
13, 11, -2, 448, -779, 16793
10, 6, 1, 452, -768, 16769
9, 3, -1, 462, -757, 16763
9, 9, 1, 484, -743, 16753
13, 4, 3, 484, -734, 16749
14, 8, 0, 469, -730, 16772
5, 12, 1, 446, -711, 16795
8, 6, 0, 422, -692, 16830
10, 9, 3, 413, -679, 16856
10, 1, 5, 401, -678, 16839
12, 4, -2, 402, -698, 16816
11, 4, -4, 395, -710, 16776
11, 4, 1, 404, -723, 16746
11, 7, -4, 401, -727, 16738
9, 8, 2, 403, -726, 16755
12, 0, 5, 396, -712, 16774
7, 5, 3, 388, -708, 16797
10, 2, 2, 387, -677, 16803
10, 5, -5, 378, -659, 16791
11, 9, 2, 392, -669, 16766
5, 7, 0, 393, -684, 16753
6, 6, -1, 404, -726, 16747
9, 7, 3, 415, -753, 16749
2, 8, 2, 427, -767, 16744
2, 6, 1, 440, -761, 16740
11, 7, 2, 440, -742, 16726
6, 5, -2, 445, -719, 16743
8, 6, 0, 428, -696, 16772
8, 8, 2, 404, -676, 16809
11, 8, 4, 390, -666, 16836
10, 7, -3, 372, -662, 16852
7, 9, 2, 363, -670, 16842
14, 6, 5, 358, -701, 16830
9, 7, 11, 369, -722, 16820
5, 12, 2, 382, -758, 16814
10, 7, -2, 394, -770, 16799
10, 5, 1, 403, -762, 16814
12, 8, -4, 389, -742, 16800
12, 8, 0, 397, -720, 16803
14, 6, -1, 391, -709, 16794
9, 6, 0, 405, -711, 16774
7, 6, 6, 416, -725, 16768
10, 5, 3, 423, -729, 16753
12, 3, 1, 427, -710, 16772
9, 7, -5, 432, -685, 16777
13, 9, -3, 421, -669, 16789
8, 10, -1, 410, -657, 16780
7, 8, 4, 392, -663, 16772
7, 4, 3, 383, -667, 16761
6, 1, -1, 390, -659, 16749
4, 5, 1, 388, -656, 16753
8, 11, 4, 397, -666, 16717
14, 7, 0, 397, -672, 16712
14, 9, 4, 400, -704, 16692
-1, 4, 4, 403, -724, 16713
12, 7, 0, 414, -724, 16749
10, 9, 3, 398, -719, 16785
5, 6, 3, 375, -698, 16783
5, 10, 0, 339, -671, 16773
12, 8, 7, 310, -657, 16753
14, 8, 2, 290, -653, 16754
12, 9, 5, 309, -664, 16764
8, 5, 2, 315, -673, 16782
6, 6, 0, 339, -703, 16767
9, 5, 3, 365, -721, 16757
6, 8, 3, 376, -729, 16753
9, 4, 5, 396, -743, 16748
14, 9, 7, 407, -743, 16759
12, 6, -2, 402, -747, 16756
14, 7, 4, 411, -732, 16765
12, 6, -1, 403, -721, 16773
3, 3, -2, 395, -703, 16784
12, 7, 3, 380, -696, 16796
11, 3, 3, 358, -700, 16776
9, 6, 5, 341, -706, 16761
11, 9, 4, 339, -715, 16728
5, 3, 1, 342, -728, 16715
6, 6, 1, 371, -738, 16718
8, 6, -1, 394, -736, 16726
9, 3, 3, 411, -739, 16746
7, 4, 1, 402, -723, 16755
13, 10, 2, 375, -731, 16747
9, 6, -2, 344, -719, 16767
9, 9, 1, 330, -714, 16762
7, 9, 1, 326, -686, 16774
7, 8, 1, 329, -671, 16768
3, 6, 1, 343, -651, 16753
14, 6, 2, 358, -669, 16737
7, 2, 2, 383, -688, 16729
9, 3, 0, 410, -709, 16736
8, 10, 7, 427, -729, 16746
8, 7, 1, 424, -733, 16766
11, 7, 0, 414, -727, 16769
9, 6, 0, 387, -727, 16779
14, 3, -2, 361, -715, 16747
9, 7, 2, 357, -717, 16736
9, 8, 3, 360, -726, 16716
9, 6, 4, 378, -738, 16731
12, 8, 3, 390, -750, 16749
9, 14, 2, 395, -758, 16773
14, 10, 4, 389, -742, 16800
10, 6, 1, 386, -730, 16801
12, 8, 5, 390, -729, 16815
11, 3, -1, 380, -721, 16817
10, 7, -5, 368, -744, 16823
9, 8, 2, 340, -758, 16827
7, 5, 3, 328, -774, 16819
14, 5, 4, 337, -772, 16798
12, 5, -2, 370, -757, 16765
9, 6, 2, 408, -726, 16740
9, 7, 0, 430, -697, 16730
8, 5, -2, 452, -677, 16740
12, 8, 5, 450, -660, 16775
5, 6, 6, 464, -663, 16800
4, 8, 0, 455, -679, 16820
7, 10, 4, 450, -701, 16823
8, 9, 10, 432, -725, 16822
11, 5, 2, 414, -755, 16792
5, 6, 1, 414, -758, 16771
9, 5, -2, 416, -767, 16760
6, 5, -1, 418, -759, 16755
6, 8, -1, 425, -753, 16786
6, 5, -1, 405, -740, 16795
10, 6, 2, 401, -737, 16807
10, 5, 4, 401, -722, 16783
7, 7, 1, 397, -716, 16762
9, 6, 2, 407, -704, 16753
13, 4, -1, 397, -702, 16753
8, 10, 4, 397, -693, 16768
8, 6, 5, 392, -700, 16793
10, 3, 2, 407, -691, 16785
5, 6, 1, 407, -701, 16777
7, 12, -2, 415, -690, 16756
15, 9, 3, 413, -709, 16740
8, 9, 3, 407, -702, 16733
4, 2, -4, 404, -722, 16753
5, 4, 1, 402, -726, 16765
11, 11, 2, 406, -726, 16775
11, 9, 0, 414, -716, 16784
10, 5, 2, 423, -707, 16781
10, 5, -1, 442, -693, 16775
7, 10, 4, 450, -691, 16774
11, 14, 4, 470, -696, 16763
9, 9, -1, 458, -695, 16765
7, 11, -4, 458, -701, 16759
11, 13, -4, 407, -702, 16768
10, 14, 0, 401, -692, 16773
11, 12, 3, 374, -699, 16772
8, 5, 0, 373, -696, 16771
14, 9, 1, 390, -700, 16757
9, 5, 5, 391, -686, 16768
6, 5, 3, 413, -685, 16766
7, 7, 6, 416, -670, 16777
11, 7, 7, 425, -666, 16768
10, 4, 0, 442, -662, 16754
13, 4, -4, 446, -663, 16734
10, 5, 4, 459, -672, 16740
7, 6, 1, 466, -689, 16750
5, 5, 0, 446, -715, 16767
9, 5, 3, 422, -736, 16776
12, 7, -1, 391, -754, 16787
7, 11, 1, 372, -753, 16782
8, 4, 1, 379, -750, 16782
7, 4, -3, 401, -732, 16775
9, 3, 0, 427, -714, 16768
10, 3, -3, 435, -697, 16769
9, 9, 3, 422, -690, 16780
10, 10, 0, 400, -692, 16789
10, 8, -2, 390, -702, 16785
10, 3, 1, 392, -719, 16772
9, 7, 4, 404, -738, 16761
6, 9, 2, 429, -761, 16743
5, 13, 1, 432, -768, 16743
12, 8, -3, 437, -775, 16748
15, 5, -5, 429, -770, 16753
13, 8, 0, 423, -756, 16770
8, 8, -1, 402, -752, 16783
6, 3, -3, 390, -739, 16800
9, 5, 1, 371, -730, 16809
10, 5, 2, 355, -718, 16815
9, 6, 2, 337, -720, 16803
10, 5, 2, 332, -725, 16787
15, 12, 3, 329, -733, 16789
11, 14, 0, 337, -726, 16786
9, 5, 2, 369, -721, 16819
10, 8, 4, 384, -698, 16832
12, 1, -2, 422, -699, 16832
8, 2, 0, 446, -700, 16819
5, 8, -1, 467, -705, 16794
10, 8, -7, 471, -718, 16765
8, 5, 2, 462, -717, 16749
10, 7, 4, 449, -728, 16741
8, 4, 5, 432, -728, 16728
11, 7, 4, 422, -721, 16732
11, 9, 3, 413, -713, 16730
9, 7, 5, 393, -694, 16734
9, 8, -1, 389, -691, 16744
8, 4, 2, 371, -683, 16754
9, 5, 2, 377, -690, 16757
9, 5, 2, 366, -698, 16759
9, 6, 2, 368, -704, 16772
12, 7, -3, 369, -712, 16774
13, 1, 0, 352, -703, 16790
9, 3, 5, 367, -685, 16795
8, 5, 4, 348, -679, 16797
8, 3, 1, 361, -685, 16799
8, 6, 4, 375, -719, 16791
9, 9, -2, 384, -757, 16776
14, 4, 4, 409, -774, 16769
14, 7, 0, 412, -778, 16759
10, 5, 0, 416, -751, 16757
11, 7, 1, 402, -731, 16760
3, 8, 3, 402, -711, 16754
2, 8, 1, 407, -700, 16759
12, 6, 2, 406, -702, 16763
12, 4, 5, 417, -716, 16790
7, 4, 0, 402, -731, 16806
9, 7, 1, 372, -740, 16830
10, 7, 2, 359, -759, 16837
7, 7, -2, 348, -741, 16828
9, 8, -1, 373, -746, 16809
11, 6, -2, 408, -729, 16791
3, 8, 2, 459, -729, 16766
7, 9, 2, 486, -709, 16747
9, 6, -3, 503, -706, 16735
9, 7, 0, 485, -700, 16731
7, 6, 4, 447, -703, 16739
11, 8, 2, 395, -706, 16771
6, 9, 0, 377, -724, 16794
3, 6, 1, 366, -733, 16807
9, 8, 2, 374, -747, 16808
17, 6, 8, 386, -754, 16805
6, 4, 7, 381, -757, 16815
3, 6, 5, 380, -747, 16826
6, 11, 5, 390, -753, 16858
10, 4, -1, 395, -762, 16879
10, 4, 0, 401, -771, 16896
10, 4, 3, 405, -774, 16890
7, 6, 3, 411, -754, 16875
7, 6, 6, 405, -735, 16840
4, 7, 1, 422, -696, 16805
7, 8, 4, 424, -688, 16781
9, 6, 1, 431, -675, 16767
10, 7, 1, 440, -679, 16759
4, 6, 1, 423, -688, 16770
6, 5, -2, 405, -700, 16799
16, 4, 0, 385, -719, 16815
4, 5, 1, 374, -745, 16848
9, 5, 2, 365, -762, 16845
5, 2, -1, 371, -774, 16837
2, 6, 3, 364, -766, 16816
10, 7, 5, 372, -764, 16798
10, 5, 1, 405, -750, 16774
8, 12, 1, 403, -756, 16771
0, 9, -2, 431, -757, 16769
7, 7, 5, 417, -772, 16790
7, 12, 0, 406, -766, 16795
8, 9, 2, 401, -775, 16791
8, 4, 1, 388, -765, 16767
9, 8, 3, 389, -757, 16739
5, 9, 2, 371, -751, 16736
9, 4, 2, 372, -728, 16742
11, 0, 2, 374, -703, 16768
11, -2, 0, 395, -690, 16792
13, 2, 0, 407, -681, 16802
8, 0, 0, 432, -698, 16800
0, 3, -5, 426, -710, 16805
2, 7, -5, 421, -711, 16783
8, 11, -1, 418, -712, 16769
16, 7, 0, 407, -695, 16742
14, 4, -2, 407, -692, 16721
8, 8, -4, 394, -693, 16719
8, 3, -1, 388, -711, 16735
8, 5, -1, 382, -726, 16773
8, 10, 2, 396, -749, 16801
12, 10, 2, 393, -765, 16823
10, 8, 0, 408, -770, 16835
5, 6, 0, 391, -771, 16827
10, 9, 0, 378, -763, 16820
9, 9, 1, 364, -757, 16796
10, 5, 0, 348, -748, 16778
-1, 7, 0, 357, -756, 16761
4, 9, -3, 364, -755, 16743
7, 4, 2, 384, -752, 16742
2, 5, 3, 406, -746, 16773
5, 5, 0, 419, -740, 16783
13, 8, 1, 435, -735, 16818
18, 9, 1, 447, -738, 16810
11, 9, 2, 438, -731, 16802
10, 6, 1, 432, -730, 16769
10, 8, 0, 422, -726, 16750
11, 12, 5, 417, -720, 16744
9, 7, 2, 427, -697, 16750
6, 4, -2, 422, -686, 16764
10, 6, -2, 415, -672, 16770
12, 7, -5, 388, -678, 16764
5, 5, 0, 350, -696, 16748
11, 5, 3, 325, -714, 16740
9, 8, 2, 315, -722, 16747
8, 7, 2, 316, -721, 16748
8, 5, 2, 340, -731, 16765
9, 7, 5, 377, -731, 16754
9, 8, 2, 388, -751, 16757
12, 8, 8, 429, -754, 16761
11, 11, 2, 460, -752, 16756
10, 6, -4, 474, -715, 16787
11, 11, 3, 504, -680, 16802
6, 10, 2, 504, -653, 16818
6, 9, 4, 498, -647, 16830
8, 2, 0, 498, -661, 16808
9, 7, -4, 470, -686, 16796
17, 6, -1, 467, -714, 16773
14, 6, 6, 434, -737, 16763
7, 4, 3, 405, -751, 16760
7, 2, 2, 387, -751, 16782
7, -1, 5, 372, -736, 16787
6, 7, 4, 373, -708, 16803
4, 9, 0, 397, -689, 16793
9, 8, 1, 422, -688, 16797
13, 7, 0, 421, -703, 16793
7, 6, -2, 425, -717, 16803
9, 5, 2, 393, -736, 16813
8, 5, 3, 389, -751, 16811
12, 5, -2, 391, -747, 16807
9, 8, 1, 397, -747, 16807
8, 9, 3, 402, -733, 16789
8, 9, 2, 395, -711, 16787
11, 6, 0, 381, -708, 16772
4, 4, -1, 376, -701, 16746
6, 1, -3, 368, -710, 16727
12, 6, 1, 363, -706, 16706
7, 8, 2, 367, -708, 16687
12, 10, 1, 360, -708, 16705
10, 5, 3, 371, -709, 16719
11, 5, 1, 386, -727, 16743
7, 6, -4, 394, -728, 16774
6, 8, 0, 421, -730, 16798
10, 4, 1, 430, -714, 16817
17, 13, 0, 436, -693, 16825
11, 7, 3, 417, -664, 16817
7, 4, 2, 400, -665, 16791
14, 6, 3, 366, -662, 16787
5, 10, 0, 345, -700, 16772
5, 11, 4, 321, -706, 16793
10, 11, -3, 306, -724, 16798
8, 5, 2, 321, -702, 16796
10, 5, -2, 331, -697, 16792
9, 6, 4, 370, -683, 16783
9, 8, -1, 384, -691, 16781
7, 8, -5, 397, -699, 16792
6, 10, 0, 401, -718, 16792
9, 12, 2, 396, -724, 16803
11, 12, 6, 392, -736, 16809
6, 3, -2, 380, -749, 16798
6, 8, 3, 371, -751, 16795
9, 9, 1, 365, -756, 16774
7, 6, -3, 362, -757, 16756
6, 6, 0, 381, -734, 16758
3, 4, -2, 373, -719, 16766
3, -1, -4, 387, -696, 16777
7, 10, 2, 385, -682, 16783
10, 6, 4, 386, -684, 16772
5, 7, 2, 384, -710, 16755
3, 6, 0, 394, -725, 16750
8, 4, 2, 400, -760, 16768
7, 6, 2, 409, -745, 16791
8, 8, 3, 412, -743, 16824
10, 6, 1, 402, -704, 16833
10, 5, 3, 376, -687, 16833
7, 7, 3, 359, -682, 16814
3, 9, -1, 351, -671, 16804
2, 8, -6, 346, -678, 16787
6, 6, 1, 358, -671, 16789
10, 4, 2, 365, -661, 16775
11, 8, -1, 380, -665, 16781
10, 9, -3, 389, -666, 16760
12, 10, -3, 389, -698, 16739
10, 7, 5, 404, -716, 16744
6, 12, 2, 392, -742, 16738
9, 2, 1, 400, -753, 16766
11, 11, -1, 401, -760, 16798
6, 11, -1, 398, -752, 16816
10, 2, -1, 407, -741, 16830
9, 5, 5, 421, -726, 16819
7, 5, -1, 431, -702, 16821
12, 8, 1, 442, -704, 16814
8, 4, 6, 425, -710, 16815
9, 3, 6, 405, -715, 16815
8, 8, -1, 376, -723, 16800
6, 8, 0, 369, -724, 16787
8, 7, -2, 366, -726, 16768
8, 6, -2, 382, -731, 16750
8, 13, 0, 401, -736, 16734
11, 6, -2, 409, -727, 16723
5, 9, 2, 424, -719, 16711
5, 13, 2, 424, -706, 16708
17, 7, 0, 430, -703, 16734
12, 1, 1, 433, -699, 16748
12, 5, -2, 430, -705, 16799
12, 5, 0, 433, -705, 16849
10, 4, 3, 415, -719, 16856
14, 5, 4, 397, -723, 16870
12, 8, 3, 373, -728, 16857
10, 5, 1, 343, -713, 16821
8, 4, -7, 328, -702, 16817
8, 8, -5, 320, -677, 16796
9, 8, -5, 325, -674, 16785
10, 7, 1, 360, -691, 16778
15, 7, 3, 377, -712, 16777
16, 6, -1, 409, -740, 16771
10, 8, 0, 409, -750, 16775
11, 6, 0, 431, -761, 16757
9, 5, 1, 434, -754, 16757
9, 8, 2, 447, -742, 16753
14, 6, 2, 439, -729, 16756
14, 4, 1, 429, -703, 16775
7, 7, 1, 409, -681, 16775
12, 6, 3, 400, -681, 16772
14, 6, 3, 419, -679, 16763
15, 5, 1, 416, -696, 16750
10, 10, -1, 436, -708, 16738
10, 8, 2, 425, -730, 16745
11, 4, 3, 418, -741, 16761
12, 7, -3, 402, -753, 16775
12, 6, 4, 382, -760, 16790
11, 5, 2, 379, -751, 16781
14, 5, 5, 377, -742, 16764
13, 9, 6, 395, -729, 16750
13, 5, 4, 418, -726, 16734
7, 3, 1, 432, -721, 16747
6, 1, 1, 426, -723, 16748
9, 7, 2, 426, -706, 16763
11, 4, 0, 398, -688, 16791
9, 5, 3, 402, -660, 16794
8, 4, 0, 377, -646, 16784
7, 7, 0, 379, -652, 16758
9, 6, -2, 363, -663, 16728
11, 5, 1, 351, -700, 16708
10, 9, -1, 348, -723, 16713
3, 4, 0, 342, -754, 16740
4, 2, -2, 370, -781, 16745
9, 7, -3, 406, -797, 16765
8, 10, 1, 451, -794, 16750
9, 7, 6, 471, -777, 16745
9, 10, -3, 459, -751, 16707
10, 10, -8, 423, -729, 16700
7, 8, -1, 387, -722, 16682
9, 7, -1, 372, -732, 16696
12, 8, 0, 368, -734, 16718
12, 7, -5, 391, -735, 16759
13, 8, -3, 393, -733, 16760
12, 6, 6, 412, -721, 16777
10, 6, 2, 405, -710, 16762
8, 4, 0, 415, -711, 16746
13, 1, -1, 431, -699, 16743
12, 1, 3, 446, -715, 16739
8, 3, 0, 467, -715, 16732
6, 7, 1, 477, -742, 16751
9, 6, 4, 457, -751, 16748
6, 6, 1, 424, -754, 16748
7, 8, 0, 379, -736, 16746
11, 7, 1, 351, -717, 16736
7, 6, 2, 326, -697, 16750
1, 3, -2, 344, -703, 16768
9, 12, 3, 354, -708, 16800
9, 9, 2, 365, -722, 16817
8, 9, 3, 372, -726, 16828
7, 9, 6, 364, -712, 16812
12, 8, 7, 351, -708, 16809
9, 8, 3, 347, -681, 16805
9, 6, -5, 338, -670, 16811
9, 5, 2, 357, -666, 16837
10, 10, 9, 369, -666, 16838
17, 11, -1, 408, -672, 16825
15, 10, 1, 411, -672, 16822
12, 12, 0, 428, -671, 16787
15, 8, -5, 425, -684, 16776
12, 5, 1, 433, -701, 16731
7, 5, 4, 442, -723, 16708
11, 11, 0, 451, -744, 16678
5, 7, -1, 445, -753, 16682
10, 4, 1, 439, -756, 16700
13, 7, 3, 439, -749, 16723
10, 4, 5, 443, -726, 16774
7, 6, 7, 462, -699, 16797
14, 7, 4, 460, -673, 16825
9, 9, 1, 459, -673, 16835
8, 6, -4, 434, -688, 16813
11, 7, 2, 419, -714, 16791
8, 7, 3, 417, -741, 16783
8, 7, 6, 410, -754, 16773
10, 6, 5, 416, -746, 16780
9, 2, -3, 404, -737, 16780
7, 5, 4, 379, -714, 16792
9, 3, -2, 378, -697, 16790
10, 9, -6, 371, -684, 16782
8, 8, 1, 371, -676, 16770
9, 4, 3, 400, -662, 16738
7, 6, 1, 416, -643, 16728
10, 9, 4, 428, -640, 16719
14, 8, 4, 428, -633, 16729
12, 3, -2, 393, -655, 16731
6, 4, 5, 358, -679, 16726
4, 6, 5, 329, -713, 16734
11, 10, 6, 311, -740, 16756
11, 6, 3, 320, -764, 16793
15, 10, 4, 327, -764, 16837
10, 4, 3, 355, -770, 16848
10, 9, 2, 372, -755, 16838
9, 8, 3, 385, -748, 16814
7, 3, 3, 388, -729, 16795
13, 5, -5, 384, -714, 16778
12, 11, -2, 385, -706, 16776
11, 7, 1, 389, -712, 16786
13, 0, 2, 376, -723, 16793
12, 1, 2, 374, -733, 16796
9, 6, 0, 362, -728, 16787
8, 7, -1, 355, -721, 16775
8, 1, -2, 350, -713, 16760
10, 6, 0, 355, -707, 16755
9, 8, 5, 353, -719, 16749
10, 9, 3, 371, -737, 16747
8, 10, 2, 382, -744, 16729
13, 8, 1, 394, -762, 16736
8, 10, 2, 409, -757, 16727
7, 9, 3, 395, -763, 16740
8, 6, 3, 410, -768, 16744
8, 5, 5, 391, -773, 16748
5, 9, 5, 396, -766, 16741
4, 6, 5, 410, -754, 16734
3, 8, 7, 415, -730, 16737
5, 6, 1, 431, -709, 16756
3, 7, 5, 430, -693, 16766
6, 5, 3, 426, -688, 16786
1, 9, 1, 417, -693, 16780
3, 5, -1, 417, -710, 16771
5, 0, 3, 402, -721, 16775
10, 5, 5, 391, -715, 16769
6, 6, 0, 388, -696, 16781
5, 5, 1, 371, -672, 16778
9, 6, -2, 384, -661, 16792
7, 3, -5, 381, -663, 16785
9, 3, -2, 382, -686, 16783
10, 6, -2, 379, -711, 16778
14, 6, -3, 380, -742, 16766
12, 6, 0, 384, -766, 16769
8, 6, 3, 396, -776, 16779
8, 7, 0, 389, -770, 16767
9, 6, 4, 399, -744, 16768
12, 6, 5, 378, -740, 16748
8, 6, 1, 369, -746, 16750
12, 7, 6, 366, -754, 16763
9, 5, 2, 350, -773, 16790
9, 5, 1, 353, -767, 16803
7, 4, 3, 358, -754, 16803
6, 9, 6, 376, -729, 16802
7, 6, 0, 400, -714, 16796
7, 8, 2, 426, -698, 16803
4, 8, 4, 430, -692, 16807
4, 1, -1, 425, -682, 16821
6, 5, -5, 408, -694, 16817
6, 6, 4, 389, -707, 16834
9, 8, -1, 380, -713, 16829
4, 6, 1, 375, -703, 16834
10, 5, -1, 383, -697, 16825
9, 7, 4, 393, -661, 16805
9, 6, 4, 399, -662, 16797
6, 4, -4, 394, -668, 16787
7, 5, 2, 384, -684, 16786
8, 4, 3, 364, -707, 16790
10, 9, 0, 360, -716, 16799
7, 12, 4, 371, -728, 16808
14, 7, 2, 369, -725, 16826
10, 6, 1, 399, -724, 16846
5, 6, 0, 414, -718, 16860
9, 7, 0, 431, -717, 16864
12, 9, 3, 434, -699, 16853
10, 6, 3, 435, -704, 16825
10, 4, -2, 420, -691, 16794
6, 2, 0, 418, -704, 16760
9, 5, 1, 408, -694, 16754
7, 0, 3, 418, -692, 16774
9, 0, 2, 413, -680, 16799
14, 9, 5, 430, -672, 16838
11, 9, 2, 422, -666, 16837
6, 8, -2, 422, -668, 16823
11, 5, -2, 425, -673, 16783
12, 5, -1, 424, -672, 16754
11, 7, 1, 452, -685, 16734
10, 5, 2, 449, -700, 16746
8, 9, 2, 440, -718, 16756
10, 5, 2, 412, -729, 16787
10, 7, 5, 403, -734, 16791
9, 7, 3, 391, -724, 16799
13, 7, -1, 415, -710, 16786
10, 11, 0, 413, -697, 16779
7, 6, 1, 413, -678, 16761
8, 8, -1, 399, -674, 16772
10, 8, -1, 392, -674, 16754
9, 10, 1, 382, -687, 16750
6, 3, 3, 403, -705, 16731
8, 5, 3, 422, -728, 16712
6, 12, 4, 441, -736, 16696
9, 5, -1, 463, -746, 16703
13, 7, 4, 460, -746, 16719
12, 9, 4, 419, -741, 16750
14, 8, 1, 395, -733, 16791
7, 9, 5, 350, -728, 16815
7, 10, 3, 340, -723, 16829
11, 4, 5, 365, -716, 16832
5, 4, -3, 385, -724, 16837
10, 10, 0, 422, -725, 16836
13, 2, 3, 416, -721, 16844
14, 6, -1, 403, -712, 16829
13, 11, 1, 374, -711, 16813
10, 12, 0, 359, -705, 16780
6, 7, 0, 348, -719, 16775
10, 5, 1, 348, -726, 16765
13, 7, -1, 367, -729, 16773
11, 7, 2, 379, -715, 16774
8, 6, -3, 392, -698, 16763
6, 2, 1, 410, -675, 16745
6, 6, 3, 406, -655, 16722
7, 8, 4, 417, -657, 16707
8, 6, -2, 411, -663, 16699
11, 9, -5, 405, -693, 16701
11, 7, 2, 380, -704, 16719
10, 7, 8, 364, -727, 16747
7, 12, 5, 338, -728, 16770
7, 10, 1, 380, -733, 16797
12, 5, -2, 402, -712, 16827
10, 7, -4, 456, -700, 16837
3, 10, -3, 470, -687, 16848
3, 13, -2, 449, -694, 16836
6, 7, 3, 413, -711, 16830
14, 7, -3, 373, -727, 16800
6, 6, 1, 360, -721, 16786
2, 5, 2, 358, -707, 16770
3, 5, -2, 365, -691, 16776
9, 5, 3, 373, -688, 16795
10, 7, 0, 378, -695, 16814
10, 7, -3, 365, -713, 16829
12, 7, -2, 373, -735, 16819
8, 5, -1, 357, -760, 16804
5, 8, -2, 364, -775, 16774
10, 9, 1, 379, -771, 16739
12, 11, 4, 386, -757, 16708
7, 10, 3, 408, -732, 16688
12, 6, 0, 422, -729, 16689
5, 11, -1, 436, -724, 16701
12, 11, 3, 444, -721, 16702
12, 3, 7, 430, -716, 16704
12, 6, 4, 421, -690, 16692
11, 2, 1, 404, -687, 16709
14, 8, 0, 420, -697, 16728
13, 9, 1, 439, -717, 16761
6, 8, 2, 457, -736, 16794
2, 9, 2, 468, -747, 16804
6, 5, 4, 455, -732, 16823
8, 5, -3, 439, -720, 16809
11, 4, 0, 442, -702, 16817
13, 4, 2, 411, -689, 16793
8, 6, 5, 412, -679, 16765
10, 5, 4, 390, -676, 16740
9, 4, 4, 401, -678, 16721
9, 10, 2, 385, -685, 16729
8, 9, 3, 398, -693, 16739
10, 9, 2, 381, -704, 16771
7, 8, 2, 373, -701, 16769
8, 7, 0, 375, -713, 16786
9, 4, 0, 384, -713, 16783
7, 7, 1, 386, -712, 16787
12, 9, 1, 393, -721, 16782
5, 5, -7, 402, -718, 16775
3, 3, -4, 411, -720, 16780
7, 8, 1, 435, -725, 16782
12, 8, 0, 425, -716, 16793
11, 6, 3, 413, -716, 16797
7, 6, 0, 370, -698, 16789
10, 6, 1, 374, -700, 16773
12, 10, -2, 353, -688, 16756
13, 9, 3, 370, -697, 16734
14, 8, 4, 366, -691, 16731
9, 6, 4, 364, -697, 16717
8, 5, 4, 372, -707, 16720
